// Start Time: Unknown
// Update Rate: 60.0Hz
// Filter Profile: human (46.1)
// Firmware Version: 4.6.0
PacketCounter	SampleTimeFine	Acc_X	Acc_Y	Acc_Z	Gyr_X	Gyr_Y	Gyr_Z	Mag_X	Mag_Y	Mag_Z	Quat_q0	Quat_q1	Quat_q2	Quat_q3
04826		9.357230	-0.275633	-2.947879	-0.143440	0.020456	0.086683	-0.614746	0.409668	0.551758	0.248710	-0.741162	-0.317684	-0.536562
04827		9.309760	-0.389128	-2.955220	-0.140484	0.018812	0.067748	-0.614990	0.401855	0.557373	0.248195	-0.741548	-0.316598	-0.536909
04828		9.388386	-0.369372	-2.974740	-0.118998	0.019785	0.052972	-0.606934	0.397461	0.549561	0.247738	-0.741847	-0.315699	-0.537237
04829		9.352155	-0.278778	-3.047813	-0.092994	0.017821	0.043317	-0.612305	0.409912	0.558838	0.247405	-0.742074	-0.314977	-0.537501
04830		9.310016	-0.258690	-2.968824	-0.068345	0.020209	0.030750	-0.614014	0.401367	0.560059	0.247173	-0.742206	-0.314439	-0.537739
04831		9.288532	-0.161227	-2.964951	-0.035912	0.003866	-0.005381	-0.614258	0.402344	0.556152	0.246936	-0.742251	-0.314304	-0.537865
04832		9.277058	-0.056427	-3.059237	-0.011705	-0.004006	-0.021967	-0.607666	0.402588	0.559570	0.246749	-0.742238	-0.314399	-0.537913
04833		9.199055	-0.360287	-3.375762	0.051799	0.006615	-0.008262	-0.614746	0.406494	0.555908	0.247033	-0.742084	-0.314681	-0.537830
04834		9.455303	0.059384	-2.692986	0.098699	0.035560	-0.069023	-0.608154	0.402832	0.559326	0.247405	-0.741561	-0.315493	-0.537905
04835		9.313914	0.870929	-3.135541	0.064875	-0.046625	-0.165119	-0.609619	0.399658	0.549072	0.246910	-0.741207	-0.316924	-0.537780
04836		9.319861	0.554719	-3.164976	-0.048335	-0.033198	-0.074552	-0.608887	0.402344	0.555176	0.246086	-0.741251	-0.317312	-0.537868
04837		9.494149	-0.494182	-2.686474	-0.160089	-0.003515	0.072947	-0.610840	0.395264	0.563232	0.245258	-0.741775	-0.316266	-0.538139
04838		9.386292	-1.006243	-2.626120	-0.115293	0.006051	0.119768	-0.605469	0.403076	0.557373	0.244973	-0.742278	-0.315088	-0.538266
04839		9.303696	-0.524155	-2.683448	0.007925	-0.024352	0.074720	-0.607422	0.398193	0.556641	0.245239	-0.742548	-0.314752	-0.537970
04840		9.320781	0.189134	-2.927980	0.014476	-0.068683	0.058225	-0.614502	0.398926	0.561768	0.245385	-0.742953	-0.314616	-0.537423
04841		9.531317	0.127878	-2.858501	-0.061534	-0.040351	0.058478	-0.604736	0.405518	0.568115	0.245099	-0.743375	-0.314105	-0.537270
04842		9.488248	-0.121095	-2.901801	-0.067443	-0.013434	0.052767	-0.604736	0.390625	0.559570	0.244800	-0.743657	-0.313562	-0.537332
04843		9.435980	-0.346182	-2.776475	-0.026705	0.015504	0.024373	-0.603271	0.400146	0.561523	0.244706	-0.743651	-0.313318	-0.537525
04844		9.388658	0.001643	-2.843447	0.061673	-0.013470	-0.063748	-0.605225	0.405518	0.561523	0.244706	-0.743352	-0.314067	-0.537503
04845		9.411822	0.153452	-2.986790	0.116305	-0.009677	-0.114910	-0.603516	0.406494	0.564453	0.244807	-0.742770	-0.315388	-0.537486
04846		9.464565	0.346525	-2.804201	0.082814	0.002071	-0.107666	-0.607178	0.404053	0.563965	0.244731	-0.742218	-0.316507	-0.537627
04847		9.414166	0.473326	-2.853080	-0.016371	-0.002313	-0.076535	-0.605225	0.400635	0.558594	0.244125	-0.741943	-0.317026	-0.537977
04848		9.428449	0.303821	-2.824342	-0.070526	0.005025	-0.048297	-0.606201	0.404541	0.565918	0.243309	-0.741813	-0.317146	-0.538454
04849		9.387781	-0.021335	-2.724388	-0.070586	0.005667	-0.046271	-0.610840	0.398438	0.570312	0.242446	-0.741651	-0.317269	-0.538994
04850		9.475884	-0.136711	-2.720991	-0.019328	0.001756	-0.062910	-0.604980	0.393799	0.572266	0.241779	-0.741343	-0.317707	-0.539459
04851		9.425855	0.060784	-2.769408	0.016304	0.006278	-0.069096	-0.601318	0.399902	0.574219	0.241362	-0.740965	-0.318248	-0.539846
04852		9.418516	0.167322	-2.790452	-0.016869	0.012354	-0.059033	-0.612549	0.400391	0.567139	0.240801	-0.740643	-0.318560	-0.540355
04853		9.409284	0.129490	-2.844915	-0.046068	0.017436	-0.044232	-0.603760	0.405518	0.562500	0.240116	-0.740323	-0.318772	-0.540972
04854		9.365658	-0.096015	-2.850504	-0.061881	0.016119	-0.039287	-0.608887	0.398193	0.574463	0.239471	-0.740095	-0.318895	-0.541496
04855		9.379017	-0.095396	-2.892336	-0.074520	0.008093	-0.042754	-0.609131	0.401367	0.576660	0.238568	-0.739911	-0.318877	-0.542157
04856		9.405159	-0.137402	-2.926407	-0.076070	0.015674	-0.048893	-0.604492	0.403076	0.576416	0.237633	-0.739666	-0.318878	-0.542901
04857		9.461033	-0.137035	-2.856946	-0.064511	0.010649	-0.053732	-0.606689	0.407471	0.587158	0.236801	-0.739457	-0.318933	-0.543516
04858		9.420872	-0.072474	-2.794491	-0.058050	0.009608	-0.060364	-0.603516	0.391113	0.580811	0.235821	-0.739177	-0.318998	-0.544285
04859		9.397901	0.070895	-2.841157	-0.050143	0.009608	-0.058176	-0.603271	0.404053	0.588867	0.235064	-0.739042	-0.318951	-0.544822
04860		9.331670	-0.020935	-2.897187	-0.051079	0.013237	-0.056663	-0.604248	0.396484	0.591553	0.234171	-0.738833	-0.318922	-0.545509
04861		9.389257	-0.205762	-2.879341	-0.046494	0.005266	-0.053240	-0.603271	0.406250	0.577148	0.233300	-0.738706	-0.318842	-0.546099
04862		9.398803	-0.113507	-2.872678	-0.032218	0.003992	-0.051977	-0.607666	0.396973	0.583252	0.232808	-0.738559	-0.319053	-0.546384
04863		9.312957	-0.054684	-2.838304	-0.044673	0.003568	-0.052601	-0.600098	0.402100	0.584229	0.232179	-0.738434	-0.319136	-0.546773
04864		9.356488	-0.087332	-2.880738	-0.038934	-0.001093	-0.059809	-0.599365	0.403076	0.583008	0.231598	-0.738344	-0.319273	-0.547061
04865		9.397149	-0.101933	-2.873444	-0.012471	0.003364	-0.068420	-0.602295	0.395752	0.584717	0.231196	-0.738156	-0.319600	-0.547293
04866		9.401473	-0.013771	-2.921168	0.012159	0.001154	-0.082624	-0.608398	0.402344	0.590332	0.230879	-0.737888	-0.320129	-0.547480
04867		9.403270	0.044047	-2.954196	0.016132	-0.006899	-0.102115	-0.607910	0.393555	0.580566	0.230396	-0.737612	-0.320796	-0.547665
04868		9.353447	-0.017154	-2.832149	0.020928	-0.008957	-0.114116	-0.611816	0.387207	0.585449	0.229946	-0.737308	-0.321583	-0.547801
04869		9.389036	0.088296	-2.810147	0.055532	-0.001433	-0.125017	-0.605469	0.388428	0.585449	0.229634	-0.736886	-0.322553	-0.547929
04870		9.350125	0.171240	-2.952894	0.088022	-0.001875	-0.128705	-0.614014	0.395996	0.589600	0.229582	-0.736379	-0.323710	-0.547950
04871		9.257167	0.255280	-2.906233	0.078062	-0.009067	-0.127362	-0.604004	0.401855	0.590576	0.229393	-0.735955	-0.324803	-0.547953
04872		9.316095	0.276509	-2.906518	0.071878	-0.018964	-0.136092	-0.600830	0.401123	0.589600	0.229111	-0.735584	-0.325930	-0.547899
04873		9.417072	0.309748	-2.812745	0.081328	-0.008083	-0.145187	-0.610352	0.391602	0.589844	0.228871	-0.735112	-0.327146	-0.547908
04874		9.345547	0.256317	-2.874848	0.056130	-0.006207	-0.143962	-0.610840	0.396240	0.590088	0.228454	-0.734668	-0.328242	-0.548023
04875		9.396323	0.084960	-2.881769	0.056019	-0.007097	-0.152535	-0.609619	0.393066	0.589111	0.228019	-0.734203	-0.329394	-0.548135
04876		9.443756	-0.032240	-2.889692	0.067850	0.001105	-0.164312	-0.607422	0.393799	0.596436	0.227626	-0.733648	-0.330648	-0.548287
04877		9.404074	0.106295	-2.860351	0.046972	0.002382	-0.157541	-0.613525	0.388916	0.590088	0.227122	-0.733173	-0.331726	-0.548481
04878		9.433727	0.132031	-2.807773	0.002161	0.001647	-0.126596	-0.614746	0.391846	0.595703	0.226512	-0.732848	-0.332426	-0.548743
04879		9.417949	0.046529	-2.801434	-0.019192	0.004047	-0.094308	-0.605469	0.383545	0.592773	0.225928	-0.732655	-0.332809	-0.549010
04880		9.400950	-0.063597	-2.796338	-0.022556	0.003378	-0.068793	-0.610840	0.383301	0.600098	0.225422	-0.732551	-0.332998	-0.549242
04881		9.433911	-0.055713	-2.810464	0.000214	0.000900	-0.045023	-0.617920	0.390869	0.585449	0.225152	-0.732497	-0.333123	-0.549348
04882		9.411019	-0.043924	-2.893153	0.015376	-0.009333	-0.019819	-0.614258	0.388428	0.596680	0.225175	-0.732480	-0.333239	-0.549291
04883		9.343971	0.030315	-2.831077	-0.003662	-0.015205	0.009645	-0.612061	0.391113	0.599121	0.225150	-0.732649	-0.333049	-0.549191
04884		9.408010	0.039617	-2.776879	-0.005626	-0.012553	0.030992	-0.606201	0.385742	0.594482	0.225223	-0.732872	-0.332706	-0.549072
04885		9.425737	0.019989	-2.750621	0.006906	-0.007069	0.045440	-0.603760	0.398193	0.595947	0.225451	-0.733084	-0.332313	-0.548933
04886		9.423323	0.010542	-2.889722	0.020373	-0.004730	0.050433	-0.612305	0.390625	0.598633	0.225832	-0.733264	-0.331958	-0.548751
04887		9.392231	0.071479	-2.805173	0.008529	-0.003928	0.053449	-0.606201	0.384766	0.595459	0.226131	-0.733480	-0.331512	-0.548609
04888		9.426984	0.069877	-2.801768	-0.014838	-0.004226	0.063323	-0.614502	0.389404	0.598877	0.226318	-0.733777	-0.330883	-0.548515
04889		9.392602	0.041288	-2.788655	-0.032752	0.003570	0.073978	-0.607910	0.387207	0.597412	0.226482	-0.734096	-0.330098	-0.548493
04890		9.362926	-0.040074	-2.773199	-0.026580	0.001267	0.070195	-0.612793	0.394287	0.591553	0.226652	-0.734407	-0.329358	-0.548451
04891		9.415477	-0.103663	-2.810455	0.011677	0.003732	0.057865	-0.600586	0.390137	0.590088	0.227060	-0.734577	-0.328895	-0.548333
04892		9.361025	-0.127339	-2.842464	0.038758	0.010699	0.049120	-0.617432	0.395752	0.584961	0.227587	-0.734654	-0.328573	-0.548204
04893		9.361055	-0.125162	-2.857821	0.052177	0.011482	0.043527	-0.610596	0.390869	0.587158	0.228231	-0.734656	-0.328383	-0.548047
04894		9.332116	-0.150704	-2.890717	0.060189	0.015239	0.043270	-0.614746	0.391357	0.579102	0.228894	-0.734648	-0.328195	-0.547894
04895		9.312096	-0.273938	-3.038924	0.069736	0.012940	0.037585	-0.606445	0.387939	0.580566	0.229613	-0.734597	-0.328110	-0.547713
04896		9.333120	-0.292497	-3.092789	0.070817	0.011681	0.042979	-0.615479	0.401855	0.585693	0.230325	-0.734592	-0.327973	-0.547502
04897		9.265880	-0.319994	-3.063710	0.049212	0.003266	0.056964	-0.615234	0.388428	0.582764	0.230999	-0.734706	-0.327682	-0.547240
04898		9.253857	-0.362418	-3.070977	0.035642	-0.007562	0.078426	-0.616943	0.389404	0.574463	0.231604	-0.734954	-0.327209	-0.546933
04899		9.321909	-0.423443	-3.117108	0.054446	-0.025715	0.095376	-0.614990	0.389404	0.565674	0.232385	-0.735275	-0.326768	-0.546435
04900		9.316194	-0.413321	-3.088857	0.100305	-0.032097	0.105173	-0.619629	0.394287	0.570068	0.233496	-0.735548	-0.326494	-0.545757
04901		9.256195	-0.373113	-3.025852	0.135703	-0.044199	0.123956	-0.618408	0.389404	0.571533	0.234885	-0.735863	-0.326290	-0.544857
04902		9.257064	-0.277654	-3.013547	0.165517	-0.056471	0.142568	-0.605469	0.391113	0.566162	0.236461	-0.736233	-0.326124	-0.543774
04903		9.237040	-0.153301	-2.981896	0.183992	-0.064090	0.152542	-0.610596	0.394775	0.569092	0.238192	-0.736627	-0.326007	-0.542554
04904		9.271560	-0.221406	-3.002713	0.181549	-0.074167	0.164099	-0.607422	0.391602	0.557617	0.239935	-0.737089	-0.325844	-0.541255
04905		9.355933	-0.307725	-3.011054	0.185824	-0.079292	0.173424	-0.613037	0.394287	0.553223	0.241722	-0.737557	-0.325656	-0.539934
04906		9.394163	-0.331469	-2.928270	0.175088	-0.069923	0.175008	-0.610352	0.396484	0.546387	0.243494	-0.737970	-0.325406	-0.538723
04907		9.365003	-0.196669	-2.940483	0.168188	-0.069124	0.162927	-0.610840	0.395264	0.547119	0.245177	-0.738351	-0.325187	-0.537568
04908		9.452598	-0.362380	-3.011056	0.138404	-0.061721	0.156084	-0.614258	0.395508	0.546875	0.246636	-0.738753	-0.324865	-0.536541
04909		9.468544	-0.636030	-2.965224	0.123385	-0.056903	0.137212	-0.611328	0.396484	0.538330	0.247939	-0.739137	-0.324584	-0.535582
04910		9.465428	-0.768641	-2.916991	0.100602	-0.053413	0.127811	-0.614258	0.387939	0.539795	0.249087	-0.739558	-0.324238	-0.534676
04911		9.545003	-0.732818	-2.825925	0.087088	-0.046156	0.124037	-0.611084	0.393555	0.534668	0.250157	-0.739977	-0.323835	-0.533841
04912		9.620137	-0.604137	-2.724133	0.101383	-0.039644	0.144738	-0.614014	0.388184	0.533447	0.251431	-0.740390	-0.323349	-0.532964
04913		9.587340	-0.632479	-2.677921	0.115025	-0.027911	0.177377	-0.619629	0.390381	0.524902	0.252965	-0.740805	-0.322695	-0.532058
04914		9.487559	-0.791036	-2.730660	0.142115	-0.020267	0.204736	-0.601562	0.386230	0.523682	0.254808	-0.741194	-0.321973	-0.531073
04915		9.513546	-0.762548	-2.786905	0.167583	-0.031039	0.235127	-0.610107	0.392822	0.524902	0.256914	-0.741652	-0.321193	-0.529889
04916		9.450180	-0.677076	-2.781462	0.152956	-0.035961	0.273380	-0.608643	0.387695	0.519287	0.259085	-0.742257	-0.320120	-0.528633
04917		9.562955	-0.663843	-2.720238	0.153086	-0.023623	0.309114	-0.606445	0.394043	0.504395	0.261444	-0.742894	-0.318797	-0.527375
04918		9.560036	-0.649396	-2.725668	0.168416	-0.013346	0.335505	-0.612549	0.396729	0.509277	0.264037	-0.743510	-0.317354	-0.526083
04919		9.496520	-0.555908	-2.789056	0.171967	-0.007348	0.355751	-0.604736	0.392090	0.506592	0.266751	-0.744133	-0.315787	-0.524774
04920		9.523241	-0.551827	-2.759222	0.158294	-0.000844	0.360172	-0.603760	0.399414	0.508789	0.269409	-0.744757	-0.314119	-0.523531
04921		9.611910	-0.557019	-2.795378	0.136051	-0.011834	0.356887	-0.601562	0.406006	0.494629	0.271879	-0.745457	-0.312401	-0.522284
04922		9.615457	-0.587744	-2.864342	0.092449	-0.036825	0.338785	-0.603516	0.401611	0.500488	0.273926	-0.746306	-0.310665	-0.521037
04923		9.799999	-0.527477	-2.905956	0.119319	-0.021914	0.270183	-0.604004	0.404785	0.497803	0.275873	-0.746840	-0.309442	-0.519970
04924		9.399461	-0.088056	-2.930314	0.161951	0.032745	0.164542	-0.604248	0.403320	0.495117	0.277760	-0.746760	-0.308942	-0.519379
04925		9.329920	0.464553	-3.078827	0.137033	0.057195	0.102131	-0.614746	0.401367	0.492676	0.279273	-0.746463	-0.308678	-0.519151
04926		9.486095	0.490772	-3.207256	0.147010	0.079068	0.046759	-0.605957	0.399902	0.484619	0.280647	-0.745898	-0.308770	-0.519168
04927		9.396421	0.711741	-2.852134	0.203779	0.069899	-0.041139	-0.613281	0.402832	0.484375	0.281951	-0.745007	-0.309694	-0.519190
04928		9.289169	1.081773	-2.782586	0.257310	0.045634	-0.125039	-0.610840	0.406494	0.483398	0.283143	-0.743867	-0.311447	-0.519126
04929		9.516326	0.934615	-2.815280	0.267750	0.049703	-0.159832	-0.614502	0.402588	0.475342	0.284239	-0.742582	-0.313470	-0.519150
04930		9.933081	-0.274496	-3.539884	0.278136	0.079187	-0.198362	-0.617920	0.401367	0.473145	0.285290	-0.741030	-0.315725	-0.519425
04931		9.741143	-2.490846	-3.420071	0.329851	0.165793	-0.354968	-0.619629	0.400879	0.472656	0.286198	-0.738559	-0.318969	-0.520461
04932		9.282868	-2.430497	-2.952167	0.420339	0.101317	-0.540348	-0.625977	0.400391	0.466309	0.286694	-0.735651	-0.323878	-0.521275
04933		9.103576	-1.761121	-3.176423	0.480511	0.055469	-0.522944	-0.639160	0.396484	0.461914	0.287514	-0.732827	-0.329025	-0.521577
04934		9.073758	-0.885674	-2.483846	0.506590	0.074528	-0.356487	-0.640137	0.402344	0.453369	0.289267	-0.730299	-0.333206	-0.521500
04935		8.961453	0.009239	-2.180251	0.549612	0.059654	-0.105885	-0.632812	0.395264	0.452148	0.292325	-0.728409	-0.336074	-0.520597
04936		9.058915	0.197941	-2.389429	0.432177	0.033459	0.200788	-0.636475	0.403564	0.442383	0.295916	-0.727757	-0.336633	-0.519116
04937		9.288767	-1.034509	-2.889472	0.199631	0.041913	0.444308	-0.637207	0.410889	0.442139	0.299163	-0.728309	-0.334690	-0.517735
04938		9.017408	-2.274801	-2.865078	0.037583	0.047809	0.577875	-0.635010	0.411377	0.449463	0.302015	-0.729600	-0.331215	-0.516496
04939		8.997606	-2.581500	-2.909923	-0.124424	0.011941	0.678378	-0.629395	0.419678	0.448730	0.304217	-0.731716	-0.326501	-0.515210
04940		9.164251	-2.907169	-2.931590	-0.308455	0.001235	0.781927	-0.626953	0.426270	0.445801	0.305711	-0.734603	-0.320368	-0.514065
04941		9.317080	-3.560629	-2.958712	-0.324571	-0.008630	0.832017	-0.625000	0.426758	0.442871	0.307291	-0.737676	-0.313853	-0.512739
04942		9.528529	-3.669046	-2.821202	-0.204048	-0.018081	0.825729	-0.615234	0.428467	0.447998	0.309559	-0.740434	-0.307883	-0.511018
04943		9.717493	-3.237706	-2.796928	-0.146564	-0.035541	0.826341	-0.608887	0.435303	0.447998	0.312139	-0.743088	-0.302165	-0.509005
04944		9.871806	-3.286297	-2.825790	-0.147840	-0.009018	0.838071	-0.594727	0.431396	0.446777	0.314823	-0.745628	-0.296273	-0.507098
04945		9.714217	-3.326004	-2.605905	-0.125213	0.016627	0.857155	-0.599854	0.437012	0.447510	0.317783	-0.748011	-0.290265	-0.505213
04946		9.663634	-3.317325	-2.708923	-0.037028	0.004987	0.885802	-0.594238	0.437256	0.439697	0.321377	-0.750238	-0.284453	-0.502937
04947		9.501761	-3.121367	-2.812279	0.009542	0.007213	0.908825	-0.590576	0.451416	0.446533	0.325353	-0.752344	-0.278663	-0.500471
04948		9.553703	-3.365472	-2.850008	0.017121	0.020139	0.940668	-0.584473	0.450195	0.438477	0.329522	-0.754404	-0.272647	-0.497948
04949		9.546468	-3.978297	-2.864766	0.034385	0.038267	0.944634	-0.584961	0.447266	0.440186	0.333842	-0.756303	-0.266607	-0.495456
04950		9.457235	-4.038653	-2.790328	0.043162	0.039516	0.920442	-0.573730	0.463867	0.443604	0.338105	-0.758073	-0.260726	-0.492983
04951		9.523305	-3.864203	-2.721410	0.053913	0.026568	0.916661	-0.581299	0.468506	0.439941	0.342378	-0.759812	-0.254927	-0.490383
04952		9.491753	-3.840369	-2.585690	0.106725	0.037103	0.928251	-0.571533	0.471680	0.439209	0.347038	-0.761334	-0.249219	-0.487672
04953		9.566788	-3.717498	-2.448622	0.190199	0.048139	0.947416	-0.568604	0.484375	0.437988	0.352309	-0.762559	-0.243677	-0.484772
04954		9.527121	-3.671756	-2.614960	0.219939	0.053732	0.957058	-0.564697	0.488281	0.432129	0.357797	-0.763638	-0.238160	-0.481787
04955		9.450612	-3.782025	-2.826295	0.233869	0.055659	0.943100	-0.555908	0.493408	0.431152	0.363296	-0.764584	-0.232765	-0.478797
04956		9.520181	-3.854368	-2.879947	0.262015	0.051350	0.923339	-0.556152	0.504639	0.432129	0.368862	-0.765371	-0.227608	-0.475754
04957		9.311598	-3.357763	-2.838795	0.263902	0.060238	0.917133	-0.543701	0.506104	0.428223	0.374406	-0.766054	-0.222459	-0.472752
04958		9.045297	-2.990539	-2.798958	0.201832	0.058188	0.926961	-0.538818	0.515137	0.422363	0.379558	-0.766904	-0.217001	-0.469792
04959		8.892288	-2.974126	-3.004949	0.130053	0.037660	0.939891	-0.548828	0.518311	0.418945	0.384233	-0.768033	-0.211239	-0.466763
04960		8.918345	-2.966438	-2.958710	0.062987	0.031491	0.954538	-0.527832	0.523682	0.417969	0.388492	-0.769376	-0.205141	-0.463737
04961		8.939554	-2.904368	-2.870063	0.038464	0.020560	0.953640	-0.526611	0.540771	0.418457	0.392536	-0.770788	-0.198986	-0.460657
04962		8.866533	-2.780355	-2.718687	0.056416	0.014693	0.926213	-0.519287	0.546387	0.415771	0.396547	-0.772069	-0.193096	-0.457574
04963		8.682901	-2.627530	-2.849097	0.086312	-0.005536	0.858144	-0.517090	0.546875	0.419922	0.400426	-0.773171	-0.187826	-0.454518
04964		8.598560	-2.594854	-2.915089	0.093176	-0.001856	0.787800	-0.509521	0.559814	0.424316	0.404057	-0.774088	-0.183029	-0.451691
04965		8.425049	-2.441698	-2.829031	0.098495	-0.004820	0.714659	-0.507324	0.561279	0.407959	0.407416	-0.774855	-0.178741	-0.449070
04966		8.334176	-2.042536	-2.802207	0.101198	-0.012896	0.619794	-0.501221	0.572998	0.422607	0.410400	-0.775475	-0.175112	-0.446706
04967		8.237352	-1.826301	-2.773972	0.096021	-0.028618	0.516303	-0.499512	0.578613	0.421143	0.412919	-0.776001	-0.172199	-0.444598
04968		8.145594	-1.695646	-2.652596	0.086018	-0.026042	0.417492	-0.501465	0.570557	0.416748	0.414991	-0.776397	-0.169895	-0.442860
04969		8.154160	-1.716619	-2.692784	0.068873	-0.022414	0.321856	-0.494629	0.584473	0.417480	0.416586	-0.776695	-0.168150	-0.441505
04970		8.075156	-1.981794	-2.665409	0.076781	-0.024450	0.212316	-0.494385	0.583252	0.419922	0.417812	-0.776814	-0.167167	-0.440510
04971		8.022177	-2.065430	-2.574734	0.125334	-0.025578	0.082376	-0.492432	0.587158	0.415039	0.418860	-0.776584	-0.167222	-0.439899
04972		8.059138	-1.917308	-2.500155	0.186922	-0.027320	-0.044794	-0.491211	0.582031	0.411865	0.419826	-0.775965	-0.168345	-0.439640
04973		8.071277	-1.732506	-2.502636	0.201993	-0.027032	-0.135043	-0.494141	0.591797	0.405762	0.420548	-0.775163	-0.170121	-0.439683
04974		8.092824	-1.803111	-2.382218	0.204931	-0.024324	-0.223624	-0.491211	0.584473	0.409668	0.420954	-0.774209	-0.172484	-0.440054
04975		8.173981	-1.862714	-2.374304	0.206369	-0.034681	-0.297341	-0.500000	0.584717	0.415771	0.421071	-0.773174	-0.175376	-0.440619
04976		8.424192	-1.827254	-2.409627	0.174373	-0.029882	-0.355557	-0.505859	0.587158	0.402100	0.420760	-0.772138	-0.178521	-0.441467
04977		8.519908	-2.082374	-2.404627	0.118239	-0.001396	-0.412689	-0.505371	0.585938	0.404541	0.419906	-0.771098	-0.181738	-0.442785
04978		8.495542	-2.497445	-2.245127	0.054580	-0.016765	-0.477005	-0.506592	0.572510	0.406006	0.418367	-0.770226	-0.185195	-0.444324
04979		8.619234	-2.468580	-2.261316	0.064973	-0.008731	-0.556212	-0.506348	0.575928	0.398926	0.416600	-0.769147	-0.189176	-0.446172
04980		8.677457	-2.202330	-2.269036	0.060650	0.015212	-0.603341	-0.521973	0.571777	0.397705	0.414652	-0.767898	-0.193362	-0.448338
04981		8.751762	-2.125552	-2.304017	-0.009347	0.028428	-0.626918	-0.526611	0.568604	0.404785	0.412171	-0.766780	-0.197396	-0.450775
04982		8.781711	-1.929863	-2.430317	-0.104417	0.029937	-0.637487	-0.524902	0.561523	0.403564	0.409027	-0.765939	-0.201137	-0.453407
04983		8.928163	-2.050981	-2.482137	-0.220348	0.048582	-0.642232	-0.532959	0.555420	0.399414	0.405136	-0.765387	-0.204409	-0.456360
04984		8.985751	-2.312758	-2.526020	-0.299271	0.043133	-0.655787	-0.541016	0.545898	0.407959	0.400660	-0.765069	-0.207486	-0.459446
04985		9.079167	-2.581045	-2.676985	-0.280084	0.048416	-0.705616	-0.536621	0.542480	0.407471	0.396105	-0.764547	-0.210933	-0.462684
04986		9.035982	-2.582577	-2.691565	-0.232413	0.044093	-0.777377	-0.532715	0.534668	0.408203	0.391547	-0.763721	-0.215030	-0.466029
04987		9.173353	-2.197707	-2.680881	-0.199983	0.035181	-0.843398	-0.543701	0.526855	0.413818	0.386900	-0.762665	-0.219694	-0.469451
04988		9.237563	-2.005814	-2.736100	-0.257582	0.040972	-0.888176	-0.546875	0.524658	0.414795	0.381695	-0.761644	-0.224390	-0.473135
04989		9.333447	-2.286427	-2.760264	-0.301589	0.050651	-0.940697	-0.556885	0.517334	0.416260	0.375993	-0.760572	-0.229204	-0.477100
04990		9.464530	-2.576094	-2.942939	-0.256273	0.051339	-1.017475	-0.557129	0.502930	0.419922	0.370242	-0.759150	-0.234667	-0.481189
04991		9.521786	-2.458438	-2.935924	-0.184172	0.048265	-1.100670	-0.572266	0.497803	0.412842	0.364576	-0.757290	-0.240936	-0.485332
04992		9.532809	-1.900747	-2.825022	-0.152776	0.038447	-1.155052	-0.568604	0.489258	0.422363	0.358832	-0.755192	-0.247683	-0.489467
04993		9.588006	-1.282754	-2.852334	-0.203541	0.014454	-1.166268	-0.579346	0.489258	0.419678	0.352635	-0.753244	-0.254342	-0.493542
04994		9.831369	-1.063872	-2.975813	-0.309910	0.017922	-1.132695	-0.581055	0.476562	0.425781	0.345876	-0.751587	-0.260320	-0.497716
04995		9.991076	-1.307733	-3.004823	-0.417041	0.031543	-1.095925	-0.578125	0.468750	0.425293	0.338590	-0.750184	-0.265562	-0.502053
04996		9.972878	-1.665844	-3.020262	-0.489191	0.020984	-1.108376	-0.588379	0.465088	0.443604	0.330740	-0.748922	-0.270584	-0.506469
04997		10.088141	-1.846109	-3.012517	-0.476191	0.023252	-1.156763	-0.595703	0.453125	0.432617	0.322736	-0.747423	-0.275926	-0.510946
04998		10.136184	-1.442640	-2.911356	-0.456796	0.030396	-1.185138	-0.594971	0.447998	0.451660	0.314712	-0.745688	-0.281473	-0.515440
04999		10.191426	-1.160768	-2.856362	-0.477457	0.056847	-1.186539	-0.594971	0.448242	0.447998	0.306580	-0.743801	-0.286836	-0.520090
05000		10.279622	-1.420837	-2.893474	-0.509066	0.055107	-1.178697	-0.601318	0.436523	0.471680	0.298247	-0.741931	-0.291981	-0.524723
05001		10.205514	-1.690161	-2.956913	-0.463790	0.066819	-1.206256	-0.616943	0.443604	0.468994	0.290068	-0.739740	-0.297426	-0.529323
05002		10.316309	-1.602176	-2.962223	-0.379787	0.061389	-1.243531	-0.607666	0.435547	0.489258	0.282199	-0.737187	-0.303443	-0.533705
05003		10.278008	-1.198968	-2.936732	-0.373337	0.063126	-1.246399	-0.614746	0.434814	0.493896	0.274331	-0.734515	-0.309459	-0.538020
05004		10.280608	-0.867524	-3.008094	-0.440913	0.060224	-1.232303	-0.623047	0.430908	0.502686	0.266075	-0.731957	-0.315048	-0.542391
05005		10.343810	-0.784684	-3.070903	-0.549244	0.053224	-1.203148	-0.624023	0.427734	0.525879	0.257243	-0.729656	-0.319942	-0.546869
05006		10.359904	-0.679155	-2.942211	-0.692600	0.048679	-1.152717	-0.627197	0.423340	0.550781	0.247728	-0.727724	-0.323839	-0.551522
05007		10.323214	-0.585493	-3.004423	-0.795326	0.059664	-1.108077	-0.622070	0.415771	0.575928	0.237801	-0.725977	-0.326925	-0.556352
05008		10.277036	-0.411708	-2.897176	-0.854232	0.085367	-1.054697	-0.637695	0.411621	0.590820	0.227760	-0.724305	-0.329261	-0.561333
05009		10.285954	-0.351492	-2.718740	-0.909626	0.088966	-0.998078	-0.626221	0.404785	0.632080	0.217660	-0.722768	-0.330968	-0.566295
05010		10.167440	-0.379759	-2.681653	-0.946010	0.084666	-0.939414	-0.624023	0.386719	0.660400	0.207608	-0.721374	-0.332132	-0.571145
05011		10.206080	-0.690788	-2.694564	-0.858805	0.113818	-0.917331	-0.629395	0.378662	0.698486	0.198247	-0.719666	-0.333480	-0.575821
05012		10.244172	-0.686843	-2.511812	-0.754536	0.136457	-0.905635	-0.624512	0.358154	0.736572	0.189618	-0.717635	-0.335175	-0.580261
05013		10.305930	-0.369624	-2.552610	-0.702418	0.138700	-0.894424	-0.624512	0.334961	0.768555	0.181353	-0.715475	-0.337009	-0.584493
05014		10.123437	-0.215329	-2.501914	-0.631682	0.154463	-0.905847	-0.624268	0.319824	0.809326	0.173490	-0.713036	-0.339191	-0.588583
05015		10.111803	-0.215977	-2.537552	-0.531573	0.179841	-0.931713	-0.622803	0.277100	0.842773	0.166160	-0.710197	-0.341942	-0.592525
05016		10.015789	0.154974	-2.557365	-0.501062	0.188568	-0.936235	-0.626953	0.237793	0.871582	0.159007	-0.707205	-0.344821	-0.596386
05017		9.919593	0.525194	-2.583555	-0.527595	0.197613	-0.924520	-0.631836	0.202881	0.898438	0.151777	-0.704181	-0.347450	-0.600309
05018		9.892039	0.572087	-2.377260	-0.498139	0.212293	-0.916022	-0.629883	0.169189	0.914307	0.144799	-0.701017	-0.350123	-0.604170
05019		9.915587	0.659683	-2.341475	-0.465311	0.203873	-0.905549	-0.639404	0.115723	0.928711	0.138037	-0.697835	-0.352875	-0.607825
05020		9.923708	1.027457	-2.239413	-0.466126	0.207418	-0.888248	-0.633789	0.072998	0.945557	0.131364	-0.694639	-0.355484	-0.611434
05021		9.704361	1.172358	-2.196506	-0.424254	0.224888	-0.868380	-0.640137	0.026855	0.945312	0.125084	-0.691319	-0.358139	-0.614954
05022		9.578098	1.194728	-2.069272	-0.384229	0.233915	-0.841116	-0.652588	-0.018555	0.944336	0.119198	-0.687950	-0.360803	-0.618335
05023		9.527458	1.328077	-2.055395	-0.346657	0.235053	-0.807438	-0.645752	-0.061523	0.945557	0.113704	-0.684601	-0.363437	-0.621536
05024		9.459931	1.301387	-2.049304	-0.299312	0.238990	-0.771086	-0.665527	-0.097412	0.934814	0.108679	-0.681262	-0.366079	-0.624546
05025		9.334160	1.093775	-2.149034	-0.225536	0.232719	-0.739477	-0.651367	-0.116699	0.928711	0.104220	-0.677956	-0.368907	-0.627234
05026		9.234994	1.080887	-2.184650	-0.153117	0.228172	-0.703937	-0.669434	-0.146484	0.921875	0.100344	-0.674696	-0.371893	-0.629613
05027		9.072138	1.368272	-2.225478	-0.109126	0.213677	-0.640586	-0.674072	-0.174805	0.910645	0.097007	-0.671653	-0.374746	-0.631695
05028		8.956166	1.381024	-2.317600	-0.115289	0.193852	-0.569198	-0.671875	-0.204346	0.897461	0.093952	-0.668927	-0.377165	-0.633605
05029		8.823109	1.123937	-2.360853	-0.129497	0.172314	-0.488908	-0.676758	-0.212891	0.887451	0.091179	-0.666570	-0.379065	-0.635359
05030		8.644464	1.024327	-2.356849	-0.145576	0.136574	-0.391406	-0.682861	-0.228271	0.872803	0.088725	-0.664718	-0.380352	-0.636876
05031		8.567382	1.103218	-2.341407	-0.147906	0.099074	-0.267931	-0.675781	-0.244873	0.873047	0.086801	-0.663457	-0.380961	-0.638090
05032		8.597347	0.953055	-2.401727	-0.127320	0.062213	-0.115542	-0.685059	-0.251709	0.869629	0.085691	-0.662866	-0.380855	-0.638917
05033		8.483450	0.777794	-2.513443	-0.099604	0.039874	0.013262	-0.679443	-0.254883	0.867432	0.085356	-0.662789	-0.380195	-0.639435
05034		8.547106	0.807324	-2.546000	-0.110778	-0.007120	0.137521	-0.684570	-0.253906	0.864502	0.085481	-0.663370	-0.378815	-0.639635
05035		8.665142	0.692955	-2.770397	-0.121976	-0.048285	0.253941	-0.692871	-0.255859	0.863281	0.086042	-0.664552	-0.376754	-0.639550
05036		8.738621	0.606047	-2.766434	-0.118387	-0.060128	0.328024	-0.691650	-0.247070	0.876221	0.086987	-0.666030	-0.374301	-0.639325
05037		8.786796	0.529955	-2.698170	-0.081063	-0.082136	0.371005	-0.686035	-0.236084	0.870117	0.088308	-0.667734	-0.371814	-0.638817
05038		8.858021	0.497681	-2.690011	-0.019317	-0.113131	0.406299	-0.680420	-0.224365	0.883789	0.090071	-0.669667	-0.369472	-0.637906
05039		8.928411	0.491775	-2.652863	0.056231	-0.129430	0.438007	-0.680176	-0.208984	0.896973	0.092380	-0.671725	-0.367354	-0.636633
05040		8.986084	0.536378	-2.604034	0.176479	-0.138376	0.449626	-0.672607	-0.186035	0.906494	0.095404	-0.673770	-0.365804	-0.634917
05041		9.075590	0.755365	-2.523108	0.295624	-0.166446	0.469845	-0.670898	-0.162109	0.917236	0.099123	-0.675923	-0.364778	-0.632645
05042		9.110326	0.915612	-2.471590	0.386014	-0.176751	0.501562	-0.681641	-0.117676	0.922119	0.103492	-0.678137	-0.364043	-0.629993
05043		9.254964	0.914949	-2.426467	0.461728	-0.184521	0.536124	-0.666260	-0.077393	0.938721	0.108450	-0.680413	-0.363499	-0.627013
05044		9.436718	0.997066	-2.477125	0.533271	-0.198658	0.555431	-0.670166	-0.042480	0.933838	0.113873	-0.682731	-0.363212	-0.623689
05045		9.460369	1.307131	-2.455583	0.566992	-0.212595	0.551758	-0.662354	-0.002197	0.920654	0.119428	-0.685049	-0.363112	-0.620157
05046		9.533977	1.450579	-2.483985	0.578892	-0.219452	0.546695	-0.665039	0.052002	0.915283	0.125002	-0.687344	-0.363088	-0.616522
05047		9.546102	1.628430	-2.477667	0.560868	-0.220957	0.554815	-0.657471	0.094971	0.900391	0.130509	-0.689658	-0.362906	-0.612894
05048		9.567885	1.893274	-2.483598	0.519658	-0.218539	0.570482	-0.661377	0.134521	0.872070	0.135863	-0.692019	-0.362402	-0.609357
05049		9.520655	1.893283	-2.433864	0.466623	-0.230673	0.586172	-0.667725	0.163574	0.853027	0.140950	-0.694518	-0.361534	-0.605864
05050		9.444225	1.712479	-2.450836	0.426027	-0.247903	0.596926	-0.664307	0.200195	0.814697	0.145799	-0.697152	-0.360403	-0.602355
05051		9.618367	1.576356	-2.379093	0.417625	-0.244184	0.612512	-0.660156	0.224121	0.788818	0.150684	-0.699793	-0.359118	-0.598848
05052		9.790619	1.751836	-2.185521	0.464235	-0.228597	0.638863	-0.665039	0.243652	0.760010	0.156014	-0.702343	-0.357874	-0.595231
05053		9.719149	2.047323	-2.079747	0.493662	-0.216247	0.694482	-0.663086	0.262939	0.735107	0.161821	-0.704921	-0.356416	-0.591497
05054		9.861019	1.884417	-2.019997	0.538497	-0.202498	0.749262	-0.660156	0.276855	0.709229	0.168193	-0.707487	-0.354816	-0.587604
05055		9.914508	1.498045	-2.139232	0.591064	-0.204893	0.795416	-0.661621	0.295898	0.691650	0.175082	-0.710076	-0.353181	-0.583440
05056		10.066047	1.376476	-2.249716	0.606896	-0.188552	0.828928	-0.667725	0.301025	0.668945	0.182263	-0.712603	-0.351374	-0.579235
05057		10.317886	1.555574	-2.498837	0.584605	-0.181597	0.841136	-0.655029	0.310547	0.643066	0.189378	-0.715108	-0.349347	-0.575076
05058		10.113644	1.940354	-2.461918	0.475982	-0.164041	0.836377	-0.654297	0.314697	0.629395	0.195592	-0.717783	-0.346494	-0.571378
05059		10.138832	2.072502	-2.383473	0.328245	-0.148977	0.845264	-0.645752	0.328613	0.611328	0.201030	-0.720581	-0.342874	-0.568144
05060		10.046740	1.713117	-2.314073	0.217739	-0.134432	0.850865	-0.654541	0.336914	0.597412	0.205934	-0.723421	-0.338734	-0.565255
05061		9.974814	1.271867	-2.173971	0.206085	-0.106924	0.826923	-0.647217	0.331299	0.585693	0.210782	-0.726002	-0.334687	-0.562563
05062		10.057428	0.860644	-2.131845	0.282108	-0.088776	0.784477	-0.641357	0.342773	0.577881	0.215917	-0.728211	-0.331193	-0.559822
05063		10.096959	0.678513	-2.132678	0.372204	-0.090186	0.713339	-0.637451	0.352051	0.564453	0.221353	-0.729972	-0.328645	-0.556899
05064		10.231784	1.020193	-2.160527	0.462543	-0.078205	0.640457	-0.638428	0.358887	0.552979	0.227022	-0.731274	-0.326922	-0.553914
05065		10.249778	1.394920	-2.320112	0.467891	-0.043863	0.597615	-0.636963	0.354248	0.538574	0.232609	-0.732255	-0.325408	-0.551186
05066		9.924197	1.587934	-2.300656	0.400933	-0.002528	0.561520	-0.634033	0.369873	0.533447	0.237720	-0.733045	-0.323718	-0.548945
05067		9.750581	1.435528	-2.252200	0.333841	0.015054	0.540911	-0.630127	0.372314	0.525879	0.242363	-0.733804	-0.321806	-0.547021
05068		9.780303	1.308519	-2.347986	0.323458	0.036534	0.511779	-0.630371	0.367676	0.515137	0.246856	-0.734384	-0.319977	-0.545304
05069		9.646016	1.088709	-2.416428	0.317578	0.053094	0.475270	-0.630615	0.378174	0.512207	0.251181	-0.734780	-0.318308	-0.543770
05070		9.592946	1.042445	-2.402497	0.299071	0.048514	0.425696	-0.630371	0.378662	0.501953	0.255146	-0.735085	-0.316865	-0.542353
05071		9.634633	1.192797	-2.476690	0.257561	0.053436	0.403671	-0.632080	0.384033	0.497559	0.258761	-0.735381	-0.315358	-0.541116
05072		9.551023	1.302338	-2.592118	0.133078	0.059607	0.410583	-0.626221	0.383789	0.498291	0.261652	-0.735922	-0.313234	-0.540224
05073		9.483111	1.120896	-2.643102	0.015720	0.063773	0.409876	-0.624023	0.393066	0.492432	0.263822	-0.736685	-0.310579	-0.539661
05074		9.467729	0.843164	-2.668846	-0.033249	0.058193	0.383887	-0.625244	0.388916	0.494873	0.265551	-0.737502	-0.307878	-0.539244
05075		9.436767	0.824791	-2.686053	-0.063082	0.054009	0.358815	-0.628906	0.386963	0.484863	0.266967	-0.738330	-0.305208	-0.538930
05076		9.410880	0.830064	-2.666410	-0.078699	0.061001	0.346213	-0.629639	0.391357	0.492432	0.268240	-0.739120	-0.302532	-0.538724
05077		9.317424	0.599513	-2.687758	-0.105625	0.054813	0.325814	-0.621826	0.396729	0.493652	0.269232	-0.739938	-0.299877	-0.538590
05078		9.310679	0.349841	-2.722382	-0.136975	0.043210	0.294319	-0.625732	0.394531	0.482910	0.269854	-0.740792	-0.297304	-0.538531
05079		9.303074	0.346487	-2.707540	-0.135903	0.036814	0.257054	-0.622559	0.396484	0.484375	0.270295	-0.741574	-0.294982	-0.538511
05080		9.331395	0.405439	-2.691835	-0.127369	0.043535	0.218886	-0.621338	0.395508	0.485840	0.270628	-0.742208	-0.292921	-0.538596
05081		9.312601	0.245052	-2.635731	-0.116550	0.040717	0.180494	-0.622559	0.400635	0.488037	0.270844	-0.742731	-0.291156	-0.538723
05082		9.275537	-0.059982	-2.700938	-0.076808	0.038465	0.131085	-0.623535	0.401855	0.486328	0.271074	-0.743052	-0.289883	-0.538851
05083		9.356732	-0.330193	-2.728727	-0.023498	0.041375	0.077834	-0.620361	0.399170	0.488525	0.271399	-0.743109	-0.289176	-0.538988
05084		9.389805	-0.355416	-2.718562	0.020456	0.040110	0.032414	-0.625732	0.404785	0.487305	0.271787	-0.742962	-0.288952	-0.539115
05085		9.357668	-0.314496	-2.858818	0.033804	0.034567	-0.009682	-0.614258	0.395264	0.482910	0.272054	-0.742708	-0.289062	-0.539272
05086		9.300082	-0.502193	-2.806313	0.007907	0.030745	-0.046687	-0.609619	0.410645	0.485840	0.271983	-0.742441	-0.289297	-0.539550
05087		9.352066	-0.668568	-2.861043	0.008839	0.015796	-0.081923	-0.617188	0.405273	0.492676	0.271721	-0.742153	-0.289789	-0.539814
05088		9.349398	-0.549876	-2.817494	0.013654	0.014211	-0.105070	-0.628418	0.404785	0.487305	0.271380	-0.741806	-0.290450	-0.540108
05089		9.284466	-0.425512	-2.814143	0.000528	0.004770	-0.120981	-0.616455	0.398438	0.489746	0.270861	-0.741491	-0.291173	-0.540410
05090		9.270297	-0.381017	-2.860669	-0.037470	-0.008585	-0.111628	-0.618164	0.407471	0.482910	0.270116	-0.741345	-0.291699	-0.540701
05091		9.294197	-0.578943	-2.814384	-0.080018	-0.014852	-0.098787	-0.620850	0.405273	0.490723	0.269148	-0.741353	-0.291969	-0.541026
05092		9.277495	-0.663017	-2.786606	-0.100108	-0.022418	-0.099286	-0.618164	0.408447	0.492432	0.268035	-0.741438	-0.292170	-0.541353
05093		9.304148	-0.771297	-2.835240	-0.095644	-0.027331	-0.112312	-0.620361	0.406006	0.491699	0.266877	-0.741503	-0.292482	-0.541668
05094		9.343315	-0.789778	-2.779012	-0.113521	-0.030769	-0.117667	-0.614502	0.405762	0.504150	0.265575	-0.741610	-0.292754	-0.542014
05095		9.375149	-0.781363	-2.782047	-0.141180	-0.034582	-0.122916	-0.625488	0.401367	0.495117	0.264069	-0.741781	-0.292942	-0.542415
05096		9.392814	-0.852861	-2.790225	-0.161280	-0.040049	-0.123065	-0.617920	0.401367	0.505371	0.262424	-0.742019	-0.293050	-0.542829
05097		9.465902	-1.176906	-2.750188	-0.129395	-0.031300	-0.140649	-0.616211	0.395264	0.506348	0.260917	-0.742103	-0.293392	-0.543256
05098		9.460391	-1.161139	-2.691627	-0.063859	-0.033051	-0.165923	-0.618408	0.402344	0.504883	0.259697	-0.741989	-0.294189	-0.543565
05099		9.352307	-0.891371	-2.744191	-0.029500	-0.040115	-0.169692	-0.616211	0.399902	0.503662	0.258657	-0.741823	-0.295177	-0.543752
05100		9.319602	-0.924553	-2.717081	-0.046134	-0.039482	-0.146254	-0.614258	0.399414	0.508301	0.257621	-0.741747	-0.295943	-0.543931
05101		9.384843	-1.193951	-2.739424	-0.045777	-0.037943	-0.131552	-0.618652	0.400146	0.516113	0.256659	-0.741698	-0.296615	-0.544087
05102		9.321610	-1.140350	-2.752696	-0.023943	-0.035576	-0.131395	-0.618408	0.408691	0.515869	0.255839	-0.741592	-0.297377	-0.544201
05103		9.327141	-1.037783	-2.741892	-0.025463	-0.038261	-0.115318	-0.611816	0.397949	0.519531	0.255078	-0.741541	-0.298038	-0.544266
05104		9.329876	-1.038847	-2.798012	-0.041071	-0.041609	-0.091090	-0.614502	0.397461	0.523438	0.254323	-0.741599	-0.298483	-0.544296
05105		9.324735	-1.003501	-2.791421	-0.050188	-0.038464	-0.067151	-0.615234	0.397705	0.517334	0.253629	-0.741722	-0.298731	-0.544317
05106		9.350925	-0.923085	-2.801494	-0.070280	-0.041723	-0.037102	-0.621094	0.396973	0.525635	0.252940	-0.741977	-0.298708	-0.544303
05107		9.383696	-1.064576	-2.868970	-0.081381	-0.041535	-0.007736	-0.616699	0.396729	0.515137	0.252317	-0.742328	-0.298451	-0.544254
05108		9.391354	-1.242202	-2.847287	-0.058795	-0.037351	0.000241	-0.606689	0.396729	0.525146	0.251882	-0.742632	-0.298237	-0.544157
05109		9.396732	-1.175297	-2.886912	-0.043458	-0.046597	-0.008638	-0.609131	0.399658	0.530518	0.251481	-0.742925	-0.298165	-0.543982
05110		9.387484	-1.160446	-2.899748	-0.041709	-0.045658	-0.003313	-0.605469	0.393311	0.531250	0.251118	-0.743225	-0.298064	-0.543796
05111		9.376390	-1.105853	-2.897924	-0.045526	-0.051267	0.011742	-0.612793	0.401855	0.528809	0.250788	-0.743595	-0.297863	-0.543552
05112		9.389889	-1.057686	-2.898224	-0.045558	-0.051991	0.032985	-0.611328	0.401611	0.535156	0.250553	-0.744023	-0.297530	-0.543258
05113		9.327230	-1.013423	-2.876707	-0.039095	-0.059485	0.053904	-0.610596	0.398193	0.530273	0.250436	-0.744523	-0.297111	-0.542856
05114		9.341345	-1.077106	-2.874638	-0.034529	-0.071260	0.066249	-0.602295	0.397705	0.531494	0.250375	-0.745098	-0.296660	-0.542342
05115		9.357451	-1.134946	-2.854759	-0.017952	-0.069699	0.086175	-0.601562	0.399170	0.529541	0.250512	-0.745680	-0.296154	-0.541755
05116		9.352822	-1.121612	-2.797776	-0.022415	-0.067418	0.102306	-0.599365	0.405762	0.535645	0.250701	-0.746301	-0.295522	-0.541157
05117		9.368201	-1.136283	-2.881906	-0.016484	-0.067350	0.116581	-0.603271	0.398438	0.535156	0.250992	-0.746944	-0.294826	-0.540514
05118		9.370997	-1.271359	-2.883589	-0.004558	-0.063688	0.115207	-0.598877	0.395752	0.535400	0.251362	-0.747541	-0.294183	-0.539866
05119		9.372128	-1.376851	-2.851986	0.010245	-0.058738	0.109555	-0.599609	0.396240	0.534180	0.251812	-0.748071	-0.293629	-0.539223
05120		9.427199	-1.393952	-2.858652	0.023468	-0.059086	0.105420	-0.599854	0.389648	0.530029	0.252327	-0.748565	-0.293159	-0.538553
05121		9.407908	-1.388769	-2.876033	0.042707	-0.053355	0.113552	-0.591553	0.394287	0.540527	0.253015	-0.749012	-0.292710	-0.537852
05122		9.354272	-1.479202	-2.806941	0.069274	-0.053746	0.109509	-0.598877	0.397217	0.530029	0.253851	-0.749395	-0.292405	-0.537091
05123		9.335269	-1.634596	-2.815918	0.122727	-0.057217	0.103195	-0.595215	0.394775	0.530029	0.254985	-0.749663	-0.292382	-0.536191
05124		9.397045	-1.565237	-2.818409	0.182809	-0.053486	0.116116	-0.598877	0.405029	0.526367	0.256564	-0.749817	-0.292537	-0.535137
05125		9.367942	-1.409125	-2.861143	0.212662	-0.045426	0.137197	-0.594238	0.397461	0.522217	0.258444	-0.749920	-0.292672	-0.534013
05126		9.402608	-1.436986	-2.907899	0.219021	-0.049386	0.160233	-0.592773	0.390625	0.522949	0.260458	-0.750079	-0.292697	-0.532796
05127		9.353297	-1.654515	-2.942058	0.215371	-0.048687	0.178654	-0.598877	0.391602	0.516846	0.262532	-0.750285	-0.292586	-0.531548
05128		9.370919	-1.823057	-2.988042	0.211778	-0.040311	0.193401	-0.594238	0.396973	0.520508	0.264670	-0.750493	-0.292345	-0.530326
05129		9.380638	-2.069549	-2.945410	0.214447	-0.035160	0.198915	-0.600586	0.403076	0.508789	0.266862	-0.750681	-0.292065	-0.529112
05130		9.468072	-2.098947	-2.955871	0.245709	-0.045265	0.209483	-0.592041	0.403076	0.512939	0.269274	-0.750866	-0.291876	-0.527731
05131		9.512626	-2.124312	-2.974105	0.269029	-0.036174	0.228243	-0.597656	0.407715	0.506592	0.271936	-0.750999	-0.291645	-0.526302
05132		9.439130	-2.145651	-2.857304	0.263394	-0.046143	0.259215	-0.596680	0.416016	0.500977	0.274675	-0.751257	-0.291214	-0.524749
05133		9.315015	-2.116120	-2.844263	0.239046	-0.047451	0.303874	-0.594971	0.406738	0.499512	0.277454	-0.751677	-0.290394	-0.523137
05134		9.295909	-2.175123	-2.914810	0.187562	-0.038165	0.357688	-0.588867	0.408936	0.496582	0.280167	-0.752297	-0.288985	-0.521577
05135		9.301072	-2.371955	-2.956317	0.123271	-0.033375	0.396174	-0.597900	0.415771	0.494385	0.282655	-0.753131	-0.287038	-0.520105
05136		9.401636	-2.467758	-2.919147	0.078106	-0.034323	0.429792	-0.593018	0.410156	0.494385	0.285001	-0.754146	-0.284681	-0.518647
05137		9.441619	-2.491312	-2.960924	0.048040	-0.034933	0.475529	-0.593506	0.419189	0.489990	0.287353	-0.755333	-0.281901	-0.517138
05138		9.465139	-2.550828	-2.888640	0.024821	-0.021452	0.514733	-0.594971	0.417725	0.486084	0.289757	-0.756596	-0.278734	-0.515665
05139		9.451275	-2.692714	-2.912408	0.024764	-0.033687	0.563077	-0.591309	0.423584	0.487793	0.292337	-0.758009	-0.275284	-0.513985
05140		9.445936	-2.876761	-2.992561	0.038357	-0.031294	0.605044	-0.587158	0.416016	0.477783	0.295182	-0.759456	-0.271612	-0.512173
05141		9.492976	-3.083746	-2.968555	0.059340	-0.034486	0.632079	-0.590088	0.424316	0.487061	0.298263	-0.760905	-0.267856	-0.510212
05142		9.486853	-3.294070	-3.005683	0.100330	-0.040822	0.654662	-0.579346	0.424072	0.485596	0.301680	-0.762307	-0.264136	-0.508045
05143		9.443743	-3.264219	-2.911107	0.153497	-0.046064	0.671634	-0.574951	0.429443	0.480469	0.305488	-0.763610	-0.260535	-0.505666
05144		9.479032	-3.198830	-2.879771	0.218307	-0.055734	0.705046	-0.577637	0.440918	0.469482	0.309820	-0.764833	-0.257006	-0.502981
05145		9.462664	-3.170687	-2.940139	0.274895	-0.063245	0.750399	-0.570557	0.445068	0.478760	0.314676	-0.766005	-0.253432	-0.499987
05146		9.522919	-3.189840	-2.999753	0.321410	-0.061195	0.799884	-0.571777	0.450439	0.468262	0.320026	-0.767113	-0.249716	-0.496753
05147		9.468887	-3.213684	-2.935098	0.345039	-0.062251	0.850977	-0.565186	0.450195	0.460205	0.325719	-0.768224	-0.245759	-0.493297
05148		9.433322	-3.077398	-2.931581	0.355498	-0.082270	0.907200	-0.555420	0.465088	0.466553	0.331649	-0.769453	-0.241522	-0.489508
05149		9.394818	-2.935249	-2.853348	0.344125	-0.079521	0.974462	-0.562988	0.471680	0.458496	0.337763	-0.770781	-0.236782	-0.485537
05150		9.359219	-3.037570	-2.856257	0.306433	-0.072186	1.040224	-0.546875	0.479980	0.461670	0.343888	-0.772252	-0.231428	-0.481465
05151		9.308146	-3.419574	-2.828183	0.242502	-0.055709	1.073065	-0.535400	0.474609	0.454834	0.349734	-0.773836	-0.225541	-0.477488
05152		9.292622	-3.821416	-2.802019	0.227522	-0.051646	1.067742	-0.536621	0.495361	0.456543	0.355441	-0.775370	-0.219597	-0.473540
05153		9.334838	-4.145838	-2.723961	0.271843	-0.047939	1.016946	-0.528076	0.504150	0.452148	0.361212	-0.776600	-0.214127	-0.469646
05154		9.301838	-4.193587	-2.723936	0.376569	-0.033525	0.945408	-0.521484	0.513916	0.453369	0.367379	-0.777270	-0.209470	-0.465839
05155		9.190573	-3.691003	-2.712739	0.408793	-0.020641	0.874871	-0.519043	0.521729	0.453125	0.373479	-0.777612	-0.205340	-0.462243
05156		9.107191	-3.393954	-2.752464	0.298636	0.004152	0.844821	-0.519531	0.530273	0.443848	0.378767	-0.778100	-0.200892	-0.459063
05157		8.976397	-3.486260	-2.882773	0.144196	0.008284	0.849916	-0.516602	0.540771	0.442627	0.383058	-0.779023	-0.195798	-0.456129
05158		8.867874	-3.675454	-2.832556	0.042974	0.020026	0.836392	-0.510254	0.543213	0.448975	0.386636	-0.780161	-0.190363	-0.453457
05159		8.775086	-3.641115	-2.648335	-0.007478	0.018558	0.820607	-0.505127	0.547607	0.448486	0.389804	-0.781404	-0.184837	-0.450885
05160		8.730265	-3.955275	-2.467896	-0.032836	0.034822	0.822898	-0.500000	0.555420	0.448730	0.392818	-0.782632	-0.179142	-0.448430
05161		8.639643	-4.288411	-2.383343	0.043834	0.028760	0.805870	-0.488525	0.563477	0.438965	0.396240	-0.783567	-0.173859	-0.445858
05162		8.568912	-4.320658	-2.357974	0.182557	0.048219	0.757681	-0.489014	0.564209	0.438477	0.400399	-0.783866	-0.169334	-0.443352
05163		8.544816	-4.149788	-2.432838	0.280598	0.053823	0.703965	-0.482910	0.569092	0.432129	0.404989	-0.783706	-0.165499	-0.440908
05164		8.490141	-4.083680	-2.618792	0.298923	0.057304	0.666417	-0.482910	0.583984	0.438721	0.409548	-0.783386	-0.161960	-0.438572
05165		8.357479	-3.901142	-2.753429	0.291022	0.061835	0.623416	-0.472168	0.583984	0.434570	0.413887	-0.782989	-0.158654	-0.436410
05166		8.106968	-3.343388	-2.743459	0.231053	0.076571	0.594305	-0.470215	0.590820	0.416260	0.417732	-0.782682	-0.155268	-0.434512
05167		7.947076	-3.059164	-2.738867	0.099161	0.074141	0.593993	-0.461182	0.596680	0.422852	0.420697	-0.782820	-0.151415	-0.432760
05168		7.906829	-3.123580	-2.792598	-0.023304	0.075462	0.595518	-0.467041	0.607666	0.425293	0.422853	-0.783364	-0.147107	-0.431157
05169		7.845076	-3.466779	-2.629514	-0.101034	0.078228	0.562301	-0.456299	0.604004	0.434814	0.424370	-0.784111	-0.142729	-0.429776
05170		7.745700	-3.832621	-2.663564	-0.065711	0.063920	0.488262	-0.445557	0.605469	0.425293	0.425823	-0.784681	-0.139013	-0.428515
05171		7.650227	-3.721376	-2.573294	-0.001113	0.061108	0.390454	-0.445801	0.616943	0.431885	0.427336	-0.784907	-0.136180	-0.427504
05172		7.585393	-3.346515	-2.532168	0.034425	0.058345	0.308624	-0.440186	0.611084	0.428223	0.428779	-0.784916	-0.134021	-0.426724
05173		7.541951	-3.115074	-2.607060	0.024703	0.059822	0.237947	-0.447998	0.621582	0.432129	0.429902	-0.784871	-0.132288	-0.426217
05174		7.513090	-3.214383	-2.714294	0.015348	0.064433	0.160568	-0.442871	0.623535	0.425537	0.430688	-0.784756	-0.131016	-0.426029
05175		7.534682	-3.412787	-2.749248	0.032424	0.061109	0.068527	-0.441406	0.619141	0.427979	0.431249	-0.784490	-0.130424	-0.426134
05176		7.603279	-3.344265	-2.794354	0.088265	0.049066	-0.024722	-0.443604	0.621338	0.416016	0.431826	-0.783964	-0.130687	-0.426436
05177		7.533759	-3.127064	-2.706657	0.108574	0.044499	-0.115183	-0.444580	0.620117	0.425781	0.432204	-0.783283	-0.131635	-0.427013
05178		7.530443	-3.021706	-2.674517	0.113824	0.031104	-0.184307	-0.445312	0.622070	0.423828	0.432349	-0.782553	-0.133106	-0.427748
05179		7.663022	-2.907883	-2.792079	0.086611	0.027632	-0.243207	-0.450928	0.620605	0.420654	0.432096	-0.781866	-0.134881	-0.428703
05180		7.700065	-3.160940	-2.834941	0.058744	0.032830	-0.311723	-0.451904	0.615967	0.419922	0.431414	-0.781179	-0.136989	-0.429971
05181		7.803413	-3.187122	-2.879915	0.049045	0.019012	-0.395400	-0.462402	0.616943	0.413818	0.430344	-0.780475	-0.139661	-0.431460
05182		7.830531	-2.962136	-2.830247	-0.023530	0.018283	-0.447334	-0.462891	0.610352	0.412598	0.428604	-0.779965	-0.142415	-0.433211
05183		7.949124	-3.001445	-2.755598	-0.101672	0.014372	-0.476722	-0.461670	0.610596	0.418213	0.426234	-0.779701	-0.145095	-0.435130
05184		7.962562	-3.575817	-2.739131	-0.131569	0.008974	-0.518461	-0.474121	0.604248	0.422363	0.423498	-0.779500	-0.147960	-0.437193
05185		8.118199	-3.780988	-2.646687	-0.097412	0.001654	-0.586101	-0.481934	0.595703	0.421143	0.420716	-0.779103	-0.151414	-0.439397
05186		8.255854	-3.808238	-2.569408	-0.052713	0.005355	-0.636396	-0.478271	0.592041	0.425781	0.418031	-0.778453	-0.155345	-0.441735
05187		8.359520	-3.689788	-2.498366	-0.017498	0.002421	-0.676353	-0.488770	0.592285	0.417725	0.415407	-0.777614	-0.159673	-0.444136
05188		8.334582	-3.689767	-2.544372	0.005036	-0.001587	-0.703133	-0.488037	0.579346	0.421875	0.412809	-0.776651	-0.164269	-0.446562
05189		8.477936	-3.786772	-2.639070	0.015805	-0.005802	-0.737847	-0.491211	0.583496	0.420654	0.410128	-0.775591	-0.169140	-0.449049
05190		8.582495	-3.979329	-2.696955	0.000667	-0.006124	-0.776955	-0.496094	0.569336	0.412354	0.407184	-0.774497	-0.174205	-0.451673
05191		8.640669	-3.924365	-2.618216	-0.002670	-0.010282	-0.804676	-0.510498	0.565430	0.410645	0.404088	-0.773355	-0.179444	-0.454350
05192		8.654221	-3.645394	-2.546725	-0.012370	-0.012206	-0.813206	-0.509521	0.557129	0.423096	0.400874	-0.772206	-0.184701	-0.457038
05193		8.775679	-3.535149	-2.559805	-0.013271	-0.012632	-0.806560	-0.523438	0.554199	0.425537	0.397659	-0.771035	-0.189906	-0.459683
05194		8.797714	-3.474981	-2.571764	-0.016158	-0.031696	-0.806685	-0.523926	0.549072	0.426758	0.394375	-0.769911	-0.195157	-0.462190
05195		9.031369	-2.847279	-2.614432	-0.081858	-0.036861	-0.785289	-0.529785	0.539551	0.430908	0.390724	-0.769022	-0.200028	-0.464680
05196		9.202520	-2.989658	-2.857701	-0.284162	-0.003783	-0.743270	-0.530273	0.535889	0.429932	0.385975	-0.768700	-0.203732	-0.467565
05197		9.181644	-4.270328	-2.829481	-0.425425	0.028276	-0.751415	-0.523926	0.528809	0.435059	0.380322	-0.768656	-0.206827	-0.470900
05198		9.140903	-4.492734	-2.891208	-0.351064	-0.000546	-0.801931	-0.547607	0.515625	0.435547	0.374877	-0.768361	-0.210617	-0.474056
05199		9.138505	-3.449854	-2.700954	-0.302025	0.007723	-0.810662	-0.540283	0.508545	0.434082	0.369709	-0.767824	-0.214618	-0.477180
05200		9.105305	-2.453573	-2.402511	-0.373825	0.013820	-0.739511	-0.547119	0.497559	0.439941	0.364355	-0.767572	-0.217848	-0.480229
05201		9.169018	-2.902165	-2.663099	-0.504023	0.014790	-0.647298	-0.542480	0.497314	0.450684	0.358521	-0.767841	-0.219956	-0.483220
05202		9.309684	-3.929715	-2.821009	-0.546973	0.031856	-0.625794	-0.550537	0.490723	0.448242	0.352512	-0.768172	-0.221692	-0.486312
05203		9.274257	-4.016864	-2.819885	-0.461047	0.031797	-0.689112	-0.552002	0.490234	0.454834	0.346781	-0.768096	-0.224170	-0.489407
05204		9.385171	-3.380780	-2.659071	-0.457649	0.036064	-0.740394	-0.547119	0.476074	0.454102	0.340855	-0.767858	-0.226963	-0.492646
05205		9.431988	-2.887557	-2.673077	-0.458724	0.044706	-0.764732	-0.558838	0.469482	0.456787	0.334821	-0.767499	-0.229869	-0.495984
05206		9.473109	-2.715154	-2.690656	-0.438975	0.069197	-0.761147	-0.553223	0.466553	0.466553	0.328957	-0.766948	-0.232753	-0.499404
05207		9.448593	-2.575178	-2.803017	-0.417710	0.067157	-0.754953	-0.567627	0.458740	0.464355	0.323234	-0.766317	-0.235677	-0.502727
05208		9.532114	-2.508022	-2.784087	-0.367723	0.067210	-0.777784	-0.560791	0.453613	0.481445	0.317718	-0.765466	-0.238945	-0.505987
05209		9.574304	-2.554444	-2.681613	-0.326847	0.063335	-0.823694	-0.565918	0.443848	0.487061	0.312244	-0.764390	-0.242674	-0.509236
05210		9.711471	-2.586431	-2.732451	-0.272419	0.073600	-0.891851	-0.570068	0.448486	0.487793	0.306832	-0.762946	-0.247026	-0.512587
05211		9.749770	-2.359068	-2.690471	-0.221726	0.088043	-0.970050	-0.574219	0.434082	0.488525	0.301419	-0.761099	-0.252038	-0.516093
05212		9.816747	-1.882880	-2.674718	-0.176223	0.107752	-1.021429	-0.580811	0.434570	0.492432	0.296093	-0.758889	-0.257502	-0.519719
05213		9.843047	-1.467009	-2.696965	-0.186062	0.118614	-1.029880	-0.585693	0.424561	0.491455	0.290670	-0.756580	-0.262930	-0.523417
05214		9.817931	-1.304012	-2.782538	-0.225128	0.112589	-1.021671	-0.589111	0.425537	0.503906	0.285001	-0.754350	-0.268130	-0.527102
05215		9.816545	-1.208211	-2.898234	-0.283530	0.115250	-1.026205	-0.593750	0.413818	0.509033	0.278927	-0.752177	-0.273075	-0.530904
05216		9.873365	-1.100287	-2.945474	-0.371571	0.119217	-1.049797	-0.594971	0.411377	0.525879	0.272183	-0.750075	-0.277745	-0.534941
05217		9.949255	-1.152815	-3.004818	-0.481789	0.136605	-1.078904	-0.600830	0.404297	0.524658	0.264634	-0.748007	-0.282041	-0.539358
05218		9.946693	-1.195758	-2.910601	-0.592232	0.165260	-1.127819	-0.597656	0.388428	0.532959	0.256217	-0.745859	-0.286051	-0.544263
05219		10.001086	-1.273023	-2.872049	-0.650888	0.175573	-1.190906	-0.606445	0.385010	0.547607	0.247144	-0.743547	-0.290128	-0.549439
05220		10.040522	-1.130631	-2.676737	-0.649840	0.187562	-1.222321	-0.622559	0.379395	0.561035	0.237931	-0.741004	-0.294339	-0.554677
05221		10.027483	-0.846328	-2.594110	-0.607111	0.192467	-1.228345	-0.619873	0.364014	0.574707	0.228937	-0.738239	-0.298733	-0.559777
05222		9.959784	-0.786752	-2.566137	-0.541662	0.190255	-1.218951	-0.626709	0.354736	0.583496	0.220355	-0.735286	-0.303338	-0.564609
05223		9.956804	-0.416434	-2.545470	-0.464205	0.188361	-1.190436	-0.636963	0.341553	0.597656	0.212354	-0.732184	-0.308096	-0.569113
05224		9.873301	-0.137495	-2.661146	-0.477676	0.186448	-1.148371	-0.639160	0.332031	0.613525	0.204293	-0.729218	-0.312346	-0.573537
05225		10.033954	-0.535047	-2.671982	-0.537272	0.173702	-1.110509	-0.645264	0.322510	0.633301	0.195960	-0.726454	-0.316031	-0.577917
05226		10.208728	-0.562257	-2.630616	-0.531975	0.129854	-1.090958	-0.646973	0.307373	0.644775	0.187576	-0.723893	-0.319615	-0.581928
05227		9.913878	-0.260238	-2.692015	-0.536711	0.150493	-1.072127	-0.648193	0.296631	0.663818	0.179257	-0.721236	-0.322960	-0.585988
05228		9.910097	-0.308759	-2.560263	-0.487440	0.173109	-1.068298	-0.650879	0.285156	0.675293	0.171563	-0.718197	-0.326724	-0.589924
05229		10.068304	-0.100986	-2.401844	-0.413586	0.123273	-1.034909	-0.657715	0.266846	0.697510	0.164328	-0.715323	-0.330688	-0.593258
05230		9.756038	0.631969	-2.436543	-0.439963	0.113725	-0.949958	-0.663086	0.252441	0.712158	0.157321	-0.712710	-0.333997	-0.596440
05231		9.724553	0.656311	-2.513644	-0.404223	0.147050	-0.878978	-0.662354	0.244873	0.730225	0.150962	-0.710031	-0.336992	-0.599585
05232		9.490434	-0.094453	-2.519687	-0.292121	0.158297	-0.818790	-0.668457	0.227295	0.732178	0.145592	-0.707284	-0.340154	-0.602369
05233		9.336758	0.201999	-2.432606	-0.223001	0.155875	-0.741052	-0.668457	0.217773	0.758301	0.141011	-0.704653	-0.343188	-0.604816
05234		9.443476	0.797093	-2.460262	-0.222312	0.152951	-0.632753	-0.672363	0.200684	0.772461	0.136970	-0.702322	-0.345575	-0.607093
05235		9.408542	0.892685	-2.419782	-0.193552	0.166974	-0.558703	-0.672852	0.196777	0.781738	0.133512	-0.700081	-0.347646	-0.609264
05236		9.469437	0.330973	-2.541760	-0.112348	0.164621	-0.540128	-0.671631	0.184570	0.798340	0.130614	-0.697801	-0.350013	-0.611150
05237		9.343554	0.146840	-2.428582	-0.041574	0.176028	-0.524278	-0.676514	0.166748	0.805176	0.128244	-0.695420	-0.352624	-0.612863
05238		9.313751	0.510413	-2.354479	0.022152	0.187975	-0.485148	-0.680176	0.162354	0.812012	0.126480	-0.693014	-0.355309	-0.614402
05239		9.337195	0.303735	-2.360814	0.130962	0.219141	-0.474649	-0.676270	0.167236	0.820312	0.125493	-0.690354	-0.358448	-0.615774
05240		9.450024	0.445110	-2.327030	0.281486	0.183037	-0.527382	-0.691895	0.151855	0.822754	0.124995	-0.687551	-0.362688	-0.616528
05241		9.351974	0.875850	-2.639553	0.361270	0.164895	-0.555801	-0.693115	0.145020	0.817383	0.124755	-0.684655	-0.367505	-0.616947
05242		9.245184	1.228483	-2.471576	0.378609	0.186317	-0.524089	-0.699951	0.143066	0.823730	0.124842	-0.681710	-0.372194	-0.617380
05243		9.004490	1.314268	-2.566330	0.314172	0.170785	-0.427489	-0.695801	0.151123	0.831055	0.125012	-0.679195	-0.376007	-0.617807
05244		8.915029	1.409311	-2.628584	0.233958	0.145500	-0.335076	-0.701416	0.149170	0.833984	0.125125	-0.677175	-0.378901	-0.618233
05245		8.747484	1.453012	-2.631883	0.177145	0.111114	-0.231715	-0.708252	0.159912	0.816650	0.125342	-0.675714	-0.380950	-0.618529
05246		8.803516	1.526098	-2.439360	0.126762	0.066250	-0.090103	-0.707764	0.155762	0.812500	0.125865	-0.674985	-0.381986	-0.618579
05247		8.845671	1.420145	-2.604160	0.054894	0.024916	0.085923	-0.702637	0.160645	0.806641	0.126762	-0.675107	-0.381702	-0.618438
05248		8.777663	1.162871	-2.523347	0.033387	0.002823	0.223644	-0.704346	0.160400	0.810059	0.128180	-0.675804	-0.380554	-0.618092
05249		8.729467	0.915255	-2.533621	0.051132	-0.039964	0.364413	-0.705078	0.179199	0.809570	0.130288	-0.677147	-0.378745	-0.617292
05250		8.770674	0.751461	-2.546316	0.074546	-0.058533	0.491747	-0.703125	0.180420	0.786621	0.133127	-0.678955	-0.376351	-0.616163
05251		8.828996	0.695953	-2.530804	0.083751	-0.086921	0.596518	-0.707764	0.194336	0.776855	0.136467	-0.681215	-0.373431	-0.614713
05252		9.232871	0.513548	-2.644612	0.079127	-0.136388	0.707287	-0.701660	0.209717	0.772461	0.140193	-0.684059	-0.369901	-0.612848
05253		9.276232	0.229928	-2.791602	0.066879	-0.159227	0.803216	-0.697754	0.225830	0.759033	0.144267	-0.687303	-0.365770	-0.610748
05254		9.443185	0.151865	-2.595819	0.104748	-0.171031	0.858797	-0.689697	0.238770	0.739502	0.148801	-0.690699	-0.361505	-0.608365
05255		9.411609	0.384587	-2.492974	0.151401	-0.187658	0.916991	-0.686768	0.247803	0.714355	0.153844	-0.694257	-0.357138	-0.605634
05256		9.485679	0.221753	-2.562405	0.178879	-0.183897	0.996203	-0.681641	0.254883	0.702393	0.159449	-0.697950	-0.352418	-0.602696
05257		9.636622	-0.140212	-2.545851	0.256299	-0.179326	1.047161	-0.678467	0.270508	0.682373	0.165764	-0.701613	-0.347754	-0.599440
05258		9.729246	-0.453361	-2.565374	0.352521	-0.185801	1.083359	-0.676270	0.279785	0.660645	0.172792	-0.705218	-0.343334	-0.595762
05259		9.893850	-0.320315	-2.535276	0.432089	-0.196178	1.120599	-0.671875	0.295166	0.647949	0.180430	-0.708798	-0.339066	-0.591679
05260		9.952170	-0.264261	-2.472032	0.467549	-0.193107	1.160026	-0.662598	0.314941	0.630859	0.188465	-0.712344	-0.334696	-0.587389
05261		10.041749	-0.317914	-2.516505	0.516075	-0.212533	1.181707	-0.654541	0.321045	0.621826	0.196502	-0.716058	-0.330094	-0.582826
05262		10.139010	-0.211691	-2.592457	0.552431	-0.206613	1.209125	-0.650391	0.333984	0.593750	0.204878	-0.719671	-0.325438	-0.578091
05263		10.221174	-0.132464	-2.617877	0.553730	-0.191590	1.242424	-0.654053	0.338379	0.576660	0.213578	-0.723128	-0.320659	-0.573279
05264		10.223399	-0.152128	-2.657012	0.538338	-0.184040	1.279395	-0.636963	0.359375	0.563477	0.222394	-0.726553	-0.315564	-0.568403
05265		10.141974	-0.235862	-2.687611	0.496803	-0.187522	1.317688	-0.639160	0.368164	0.550537	0.231246	-0.729990	-0.310153	-0.563423
05266		10.233321	-0.175243	-2.744842	0.444896	-0.202040	1.335998	-0.630615	0.364746	0.548096	0.239798	-0.733537	-0.304370	-0.558373
05267		10.193293	-0.050046	-2.826878	0.352580	-0.210177	1.339296	-0.621338	0.377441	0.532227	0.247746	-0.737209	-0.298111	-0.553421
05268		10.048767	-0.057755	-2.811015	0.193314	-0.227391	1.344616	-0.613770	0.390625	0.522217	0.254662	-0.741200	-0.291081	-0.548673
05269		10.071778	-0.326687	-2.684896	0.044172	-0.225548	1.356684	-0.616455	0.385498	0.518066	0.260680	-0.745427	-0.283253	-0.544198
05270		9.978349	-0.686745	-2.554779	-0.051768	-0.221685	1.330630	-0.597900	0.392090	0.515381	0.265957	-0.749684	-0.275107	-0.539959
05271		10.022429	-1.111319	-2.465691	-0.029606	-0.204177	1.245534	-0.595459	0.395020	0.510986	0.270997	-0.753526	-0.267522	-0.535902
05272		10.147411	-1.469139	-2.356285	0.100418	-0.200041	1.107139	-0.587891	0.397217	0.513428	0.276215	-0.756669	-0.261351	-0.531840
05273		10.210355	-1.352159	-2.228966	0.262948	-0.179806	0.954879	-0.586182	0.409180	0.506104	0.281806	-0.758952	-0.256793	-0.527859
05274		10.262898	-0.883060	-2.227596	0.416924	-0.138936	0.805218	-0.580566	0.416992	0.494385	0.287780	-0.760321	-0.253746	-0.524126
05275		10.119912	-0.626093	-2.294189	0.516874	-0.108118	0.673072	-0.584473	0.419922	0.483643	0.293858	-0.760990	-0.251887	-0.520667
05276		9.991533	-0.283504	-2.417957	0.581817	-0.091106	0.548776	-0.574219	0.425781	0.485352	0.299827	-0.761125	-0.251046	-0.517463
05277		9.789185	0.088011	-2.511095	0.580803	-0.075778	0.451436	-0.580811	0.427734	0.475586	0.305386	-0.760958	-0.250773	-0.514583
05278		9.674338	0.212560	-2.502874	0.553713	-0.059525	0.378009	-0.573975	0.439941	0.470703	0.310478	-0.760606	-0.250804	-0.512034
05279		9.497231	0.284434	-2.504995	0.518806	-0.046195	0.310147	-0.574463	0.441406	0.472656	0.315072	-0.760121	-0.251079	-0.509808
05280		9.408515	0.301039	-2.476893	0.496747	-0.032798	0.234581	-0.576416	0.439697	0.463379	0.319222	-0.759459	-0.251703	-0.507903
05281		9.349967	0.190822	-2.558978	0.502814	-0.029451	0.158648	-0.581299	0.450439	0.461914	0.323084	-0.758589	-0.252824	-0.506201
05282		9.266855	0.230286	-2.576819	0.493309	-0.014124	0.082506	-0.584961	0.456787	0.458496	0.326586	-0.757503	-0.254346	-0.504816
05283		9.304604	0.307861	-2.648725	0.446103	-0.002151	0.021166	-0.583496	0.449707	0.451660	0.329547	-0.756351	-0.256025	-0.503769
05284		9.110465	0.378659	-2.802876	0.337642	-0.008007	-0.025138	-0.581299	0.453613	0.442383	0.331609	-0.755412	-0.257559	-0.503041
05285		9.051313	0.215886	-2.823416	0.203379	-0.009280	-0.054012	-0.587891	0.452148	0.447266	0.332695	-0.754783	-0.258720	-0.502673
05286		8.989649	-0.015839	-2.930906	0.077012	-0.013886	-0.075348	-0.580566	0.455811	0.438965	0.332880	-0.754475	-0.259504	-0.502610
05287		9.073979	-0.435558	-2.820247	-0.056555	-0.004387	-0.116129	-0.580566	0.454834	0.443848	0.332070	-0.754408	-0.259962	-0.503009
05288		9.087690	-0.899026	-2.758908	-0.120723	-0.008557	-0.167462	-0.582275	0.453125	0.449463	0.330628	-0.754422	-0.260489	-0.503664
05289		9.136703	-1.017434	-2.684318	-0.139179	-0.008826	-0.196433	-0.583740	0.442871	0.447021	0.328944	-0.754423	-0.261124	-0.504437
05290		9.111641	-0.992933	-2.650041	-0.139700	-0.007406	-0.201103	-0.590088	0.455811	0.451904	0.327236	-0.754405	-0.261783	-0.505232
05291		9.072436	-0.909938	-2.550326	-0.137177	-0.015823	-0.179707	-0.590332	0.443604	0.453857	0.325612	-0.754459	-0.262343	-0.505910
05292		9.048451	-1.169732	-2.442254	-0.160574	-0.016962	-0.154109	-0.591309	0.451904	0.449951	0.323943	-0.754634	-0.262648	-0.506562
05293		9.117092	-1.789462	-2.625117	-0.125043	-0.014082	-0.159764	-0.584473	0.442627	0.448975	0.322477	-0.754685	-0.263132	-0.507169
05294		9.199990	-2.264649	-2.587353	-0.053795	0.003596	-0.193006	-0.588135	0.444092	0.455322	0.321356	-0.754395	-0.264078	-0.507820
05295		9.263219	-2.109691	-2.682047	0.012230	0.000228	-0.224842	-0.589355	0.443359	0.453857	0.320507	-0.753870	-0.265512	-0.508388
05296		9.283159	-1.809607	-2.689824	-0.003955	0.011986	-0.228105	-0.592529	0.438232	0.456543	0.319568	-0.753328	-0.266866	-0.509073
05297		9.223663	-2.055551	-2.658462	-0.072058	0.017798	-0.212748	-0.597656	0.435791	0.459473	0.318278	-0.752975	-0.267818	-0.509904
05298		9.199940	-2.409265	-2.744640	-0.093609	0.008651	-0.216828	-0.585449	0.433350	0.462646	0.316813	-0.752705	-0.268728	-0.510734
05299		9.288838	-2.577101	-2.850863	-0.052542	0.019609	-0.230671	-0.585205	0.435791	0.456543	0.315571	-0.752247	-0.269868	-0.511576
05300		9.379509	-2.326094	-2.890931	-0.007892	0.020103	-0.230762	-0.585693	0.441650	0.459961	0.314610	-0.751668	-0.271197	-0.512317
05301		9.304506	-2.118244	-2.848713	-0.043442	0.019750	-0.208388	-0.601562	0.430908	0.455322	0.313519	-0.751231	-0.272232	-0.513076
05302		9.256076	-2.189472	-2.899488	-0.111656	0.007846	-0.171533	-0.595459	0.427002	0.467285	0.312132	-0.751105	-0.272776	-0.513817
05303		9.213811	-2.446736	-2.935979	-0.152374	0.002988	-0.137897	-0.599854	0.434082	0.464355	0.310622	-0.751181	-0.272946	-0.514530
05304		9.114583	-2.383434	-2.941805	-0.157974	0.000578	-0.110378	-0.591553	0.434570	0.462158	0.309190	-0.751343	-0.272924	-0.515168
05305		9.084584	-2.500049	-2.790932	-0.166764	-0.000902	-0.082415	-0.596680	0.428711	0.469482	0.307819	-0.751596	-0.272692	-0.515742
05306		9.123670	-2.660880	-2.765755	-0.136634	-0.016444	-0.068231	-0.590088	0.427002	0.466309	0.306664	-0.751871	-0.272539	-0.516111
05307		9.146135	-2.618538	-2.695501	-0.076295	-0.008816	-0.060922	-0.593750	0.430908	0.467529	0.305936	-0.751974	-0.272578	-0.516371
05308		9.137287	-2.423989	-2.751510	-0.024511	-0.017712	-0.054020	-0.591797	0.434570	0.474854	0.305543	-0.752000	-0.272818	-0.516440
05309		9.181358	-2.415728	-2.763995	-0.006197	-0.025469	-0.043285	-0.587402	0.432373	0.471191	0.305295	-0.752037	-0.273088	-0.516389
05310		9.188324	-2.283535	-2.731810	-0.005622	-0.029073	-0.027924	-0.586182	0.431396	0.471436	0.305110	-0.752124	-0.273272	-0.516276
05311		9.174299	-2.223872	-2.752801	-0.015558	-0.022122	-0.007720	-0.591553	0.433838	0.471924	0.304965	-0.752252	-0.273268	-0.516176
05312		9.178378	-2.201879	-2.757036	-0.019944	-0.023091	-0.005906	-0.585693	0.429932	0.470947	0.304800	-0.752400	-0.273236	-0.516075
05313		9.222464	-2.168575	-2.859602	-0.026517	-0.020910	-0.007213	-0.580322	0.428223	0.473145	0.304593	-0.752552	-0.273178	-0.516006
05314		9.282425	-2.031572	-2.830785	-0.055495	-0.020853	0.002139	-0.583008	0.431885	0.480469	0.304246	-0.752799	-0.272935	-0.515979
05315		9.295275	-1.840052	-2.787207	-0.107912	-0.015960	0.010368	-0.588135	0.436035	0.476562	0.303616	-0.753177	-0.272403	-0.516080
05316		9.277799	-1.885500	-2.727465	-0.131508	-0.021132	0.012735	-0.587646	0.424316	0.478760	0.302836	-0.753641	-0.271767	-0.516195
05317		9.282326	-1.915582	-2.656949	-0.088031	-0.018658	0.009499	-0.590820	0.426514	0.488525	0.302321	-0.753977	-0.271332	-0.516236
05318		9.261478	-1.823498	-2.634616	-0.032514	-0.012773	-0.000903	-0.585693	0.435791	0.485352	0.302124	-0.754124	-0.271186	-0.516214
05319		9.269242	-1.685322	-2.617538	0.006359	-0.015886	-0.012870	-0.583984	0.429199	0.478271	0.302112	-0.754159	-0.271291	-0.516115
05320		9.274437	-1.663657	-2.739395	0.035769	-0.017235	-0.019830	-0.586182	0.442627	0.479248	0.302252	-0.754109	-0.271569	-0.515959
05321		9.342432	-1.709783	-2.726778	0.040801	-0.000351	-0.030750	-0.585693	0.425049	0.486572	0.302415	-0.753950	-0.271895	-0.515925
05322		9.266014	-1.697452	-2.739022	0.009638	-0.000288	-0.040126	-0.591553	0.426758	0.479248	0.302342	-0.753847	-0.272146	-0.515986
05323		9.228824	-1.830545	-2.810752	-0.016447	-0.000953	-0.046703	-0.587158	0.425293	0.487305	0.302075	-0.753797	-0.272328	-0.516119
05324		9.259052	-1.882084	-2.819778	-0.003521	0.000966	-0.058357	-0.582275	0.436035	0.480957	0.301843	-0.753681	-0.272633	-0.516263
05325		9.257010	-1.701413	-2.708674	0.007534	0.003732	-0.063624	-0.586426	0.434326	0.488770	0.301664	-0.753512	-0.273013	-0.516413
05326		9.248158	-1.742350	-2.690249	-0.011145	0.003496	-0.061389	-0.589355	0.426270	0.485107	0.301377	-0.753396	-0.273298	-0.516598
05327		9.277259	-1.898832	-2.736834	-0.024412	-0.001791	-0.052852	-0.583252	0.428223	0.487793	0.301031	-0.753356	-0.273486	-0.516759
05328		9.209813	-1.947593	-2.787514	-0.026351	0.008665	-0.054149	-0.583496	0.430664	0.478516	0.300692	-0.753272	-0.273648	-0.516994
05329		9.222911	-1.929699	-2.781859	-0.029865	0.006228	-0.056811	-0.586426	0.431152	0.476074	0.300314	-0.753202	-0.273816	-0.517227
05330		9.214807	-1.991940	-2.812458	-0.046890	0.008534	-0.047529	-0.586914	0.432861	0.482910	0.299874	-0.753185	-0.273847	-0.517490
05331		9.201817	-2.149111	-2.850151	-0.063897	0.017806	-0.040632	-0.592773	0.427246	0.484619	0.299379	-0.753186	-0.273738	-0.517832
05332		9.222517	-2.368129	-2.825347	-0.053616	0.011723	-0.035743	-0.590088	0.427734	0.490479	0.298956	-0.753200	-0.273657	-0.518100
05333		9.140357	-2.415806	-2.851204	-0.029329	0.007622	-0.033115	-0.583008	0.425293	0.477539	0.298689	-0.753177	-0.273673	-0.518279
05334		9.216045	-2.279492	-2.841286	-0.011945	0.004449	-0.015598	-0.587402	0.426025	0.486572	0.298600	-0.753164	-0.273661	-0.518354
05335		9.231324	-2.207947	-2.858853	-0.013845	0.001749	0.016475	-0.595703	0.428223	0.485107	0.298632	-0.753242	-0.273446	-0.518337
05336		9.254340	-2.440317	-2.883013	-0.036373	0.008516	0.047494	-0.588623	0.425293	0.487061	0.298673	-0.753417	-0.272921	-0.518335
05337		9.212727	-2.842375	-2.888998	-0.038745	0.006762	0.069501	-0.584473	0.428223	0.488037	0.298791	-0.753656	-0.272251	-0.518272
05338		9.222715	-2.940877	-2.904004	-0.003492	0.001867	0.079264	-0.588867	0.431885	0.490967	0.299163	-0.753851	-0.271682	-0.518072
05339		9.206986	-2.898929	-2.882852	0.014222	0.011250	0.097886	-0.583252	0.431396	0.484131	0.299750	-0.754004	-0.271047	-0.517843
05340		9.194244	-2.798876	-2.763625	0.015251	0.010871	0.129634	-0.587891	0.428711	0.484863	0.300481	-0.754227	-0.270217	-0.517529
05341		9.207393	-2.805612	-2.786610	0.003403	0.007761	0.170999	-0.583008	0.425537	0.487061	0.301309	-0.754586	-0.269081	-0.517116
05342		9.158503	-2.900154	-2.886867	-0.005703	-0.000299	0.223498	-0.584229	0.428711	0.483887	0.302289	-0.755118	-0.267593	-0.516538
05343		9.133034	-2.986827	-2.905736	-0.010291	-0.003194	0.263790	-0.581543	0.422119	0.484131	0.303408	-0.755761	-0.265837	-0.515848
05344		9.175499	-3.118676	-2.894873	-0.022945	-0.007255	0.306991	-0.582520	0.429199	0.482178	0.304623	-0.756546	-0.263762	-0.515047
05345		9.128416	-3.352422	-2.888024	-0.044810	-0.005057	0.352436	-0.579102	0.427490	0.478516	0.305899	-0.757471	-0.261297	-0.514187
05346		9.170915	-3.497854	-2.891402	-0.043780	-0.004918	0.381636	-0.576904	0.429932	0.486084	0.307306	-0.758449	-0.258647	-0.513244
05347		9.147060	-3.557049	-2.894759	-0.021762	-0.013859	0.414616	-0.577148	0.430176	0.477295	0.308973	-0.759473	-0.255900	-0.512106
05348		9.260637	-3.501041	-2.885461	0.020140	-0.026301	0.452352	-0.581299	0.433594	0.475342	0.311037	-0.760512	-0.253121	-0.510694
05349		9.295501	-3.475659	-2.883928	0.042502	-0.036682	0.496525	-0.578125	0.441895	0.469727	0.313405	-0.761618	-0.250177	-0.509044
05350		9.330678	-3.686386	-2.894756	0.045568	-0.040230	0.544420	-0.576416	0.437012	0.473389	0.315984	-0.762817	-0.246945	-0.507230
05351		9.318175	-4.011375	-2.910779	0.080055	-0.044518	0.575885	-0.572021	0.440186	0.477051	0.318901	-0.763991	-0.243663	-0.505221
05352		9.326304	-4.112311	-2.811932	0.134590	-0.046150	0.591040	-0.563477	0.438721	0.476318	0.322220	-0.765038	-0.240510	-0.503037
05353		9.349569	-4.082545	-2.845286	0.193755	-0.047889	0.609973	-0.559326	0.449707	0.473877	0.325984	-0.765950	-0.237480	-0.500657
05354		9.406996	-4.179914	-2.831166	0.257930	-0.042296	0.621242	-0.563721	0.455078	0.466309	0.330209	-0.766663	-0.234622	-0.498139
05355		9.470977	-4.189066	-2.913410	0.310403	-0.043064	0.641485	-0.564453	0.458984	0.461182	0.334841	-0.767248	-0.231844	-0.495440
05356		9.422614	-4.064094	-2.882661	0.315148	-0.030577	0.664475	-0.562256	0.465576	0.461914	0.339612	-0.767783	-0.228894	-0.492727
05357		9.354714	-3.956145	-2.829357	0.273088	-0.038864	0.707094	-0.557373	0.473633	0.466553	0.344260	-0.768522	-0.225511	-0.489901
05358		9.357594	-3.902568	-2.797774	0.229799	-0.038819	0.762492	-0.562256	0.469727	0.456055	0.348844	-0.769456	-0.221586	-0.486976
05359		9.375385	-4.165983	-2.835590	0.215058	-0.036000	0.806199	-0.541992	0.482178	0.446045	0.353499	-0.770464	-0.217302	-0.483946
05360		9.491630	-4.750584	-2.865752	0.225916	-0.031686	0.828063	-0.545654	0.487793	0.451660	0.358302	-0.771423	-0.212897	-0.480834
05361		9.695191	-5.168282	-2.793515	0.291143	-0.016010	0.819261	-0.542969	0.503174	0.443848	0.363500	-0.772067	-0.208750	-0.477707
05362		9.417852	-5.373272	-2.654419	0.378906	0.003553	0.783930	-0.532227	0.510010	0.449463	0.369137	-0.772263	-0.205108	-0.474634
05363		9.272971	-5.258888	-2.595337	0.511477	-0.003058	0.753775	-0.528320	0.515381	0.447510	0.375478	-0.771982	-0.202191	-0.471358
05364		9.272714	-4.409881	-2.606581	0.612500	-0.002686	0.770318	-0.536133	0.523438	0.444580	0.382512	-0.771361	-0.199549	-0.467831
05365		9.179579	-3.499454	-2.597010	0.600850	-0.002522	0.836056	-0.530273	0.540527	0.430420	0.389700	-0.770830	-0.196425	-0.464083
05366		9.030085	-3.116147	-2.744505	0.474517	-0.008518	0.918805	-0.514893	0.537354	0.428223	0.396356	-0.770807	-0.192286	-0.460201
05367		8.796259	-3.197509	-2.818127	0.309350	-0.012394	0.984771	-0.524658	0.566895	0.425781	0.402165	-0.771392	-0.187090	-0.456306
05368		8.542452	-3.082266	-2.879310	0.166517	-0.020208	1.017834	-0.516602	0.559814	0.426758	0.407137	-0.772477	-0.181154	-0.452440
05369		8.397757	-2.941612	-2.794897	0.064291	-0.024574	1.009366	-0.506104	0.573975	0.424561	0.411378	-0.773856	-0.174891	-0.448696
05370		8.279764	-2.596479	-2.734519	-0.012446	-0.046346	0.981778	-0.494385	0.579102	0.418701	0.414959	-0.775484	-0.168584	-0.444988
05371		8.240584	-2.473535	-2.635761	-0.065986	-0.049496	0.934883	-0.492432	0.586914	0.423340	0.417983	-0.777191	-0.162385	-0.441469
05372		8.166864	-2.493615	-2.601062	-0.084685	-0.067116	0.874861	-0.474365	0.595947	0.431396	0.420614	-0.778902	-0.156562	-0.438045
05373		8.092490	-2.632341	-2.530241	-0.034436	-0.065615	0.767210	-0.468262	0.600830	0.432373	0.423156	-0.780252	-0.151612	-0.434925
05374		7.973166	-2.544263	-2.449682	0.050634	-0.065784	0.619616	-0.458252	0.599609	0.426758	0.425698	-0.781088	-0.147929	-0.432203
05375		7.926802	-2.549891	-2.407167	0.121259	-0.051762	0.469473	-0.461182	0.616455	0.430176	0.428163	-0.781421	-0.145429	-0.430010
05376		7.904146	-2.568492	-2.425810	0.200719	-0.039936	0.308029	-0.463379	0.612305	0.416260	0.430571	-0.781220	-0.144225	-0.428371
05377		7.801256	-2.540055	-2.301023	0.270141	-0.020930	0.130701	-0.454834	0.614502	0.421387	0.432815	-0.780483	-0.144357	-0.427409
05378		7.767070	-2.458503	-2.281161	0.360504	-0.019133	-0.024459	-0.450195	0.617676	0.416016	0.435089	-0.779221	-0.145816	-0.426908
05379		7.732022	-2.199190	-2.232016	0.408413	-0.005009	-0.148891	-0.454346	0.620117	0.418701	0.437241	-0.777574	-0.148205	-0.426890
05380		7.734922	-2.052074	-2.177308	0.425507	0.012099	-0.255819	-0.463379	0.615967	0.408936	0.439134	-0.775659	-0.151288	-0.427348
05381		7.753875	-2.116992	-2.204038	0.393485	0.009325	-0.337941	-0.465576	0.620850	0.407227	0.440513	-0.773754	-0.154798	-0.428125
05382		7.786882	-2.186888	-2.199986	0.353762	0.020248	-0.405254	-0.467285	0.621582	0.404297	0.441397	-0.771854	-0.158563	-0.429265
05383		7.889036	-2.165019	-2.275026	0.309549	0.018587	-0.453479	-0.474854	0.625488	0.401855	0.441810	-0.770042	-0.162486	-0.430625
05384		8.016174	-2.116124	-2.296102	0.224538	0.014360	-0.497714	-0.483154	0.623779	0.390625	0.441500	-0.768483	-0.166404	-0.432229
05385		8.174181	-2.239495	-2.323613	0.087683	0.018788	-0.530705	-0.484619	0.608643	0.395752	0.440188	-0.767349	-0.170025	-0.434167
05386		8.310877	-2.729346	-2.327563	-0.047173	0.020429	-0.558700	-0.488037	0.610596	0.398193	0.437903	-0.766649	-0.173331	-0.436402
05387		8.413444	-3.171014	-2.286774	-0.087512	0.030979	-0.612330	-0.487793	0.597168	0.391602	0.435167	-0.765961	-0.176794	-0.438951
05388		8.494782	-3.165160	-2.183982	-0.035752	0.032151	-0.687378	-0.499756	0.594482	0.398682	0.432473	-0.764947	-0.180919	-0.441692
05389		8.537194	-2.733923	-2.081226	0.004898	0.026480	-0.739152	-0.504639	0.596191	0.392090	0.429821	-0.763702	-0.185539	-0.444508
05390		8.553716	-2.273772	-2.142795	-0.035059	0.020578	-0.758413	-0.517578	0.583496	0.397949	0.426817	-0.762562	-0.190151	-0.447402
05391		8.836200	-2.324494	-2.434061	-0.134806	0.022434	-0.766242	-0.518066	0.577393	0.393066	0.423131	-0.761726	-0.194429	-0.450478
05392		9.053185	-2.732734	-2.512223	-0.273252	0.048023	-0.796548	-0.523682	0.570068	0.391602	0.418473	-0.761197	-0.198285	-0.454030
05393		9.097854	-2.994685	-2.469408	-0.371060	0.062516	-0.844116	-0.524170	0.562988	0.394775	0.413012	-0.760834	-0.202013	-0.457978
05394		9.035696	-2.939034	-2.537331	-0.425262	0.050754	-0.887540	-0.529053	0.551270	0.406494	0.406995	-0.760581	-0.205839	-0.462064
05395		8.950845	-2.370137	-2.448880	-0.436275	0.055506	-0.920048	-0.542725	0.535645	0.407959	0.400760	-0.760237	-0.209800	-0.466278
05396		9.120978	-1.393432	-2.498249	-0.509191	0.044521	-0.905961	-0.552734	0.532715	0.406494	0.394067	-0.760147	-0.213412	-0.470471
05397		9.616035	-1.659014	-2.857680	-0.728713	0.073600	-0.834350	-0.551025	0.525391	0.414062	0.386281	-0.760729	-0.215599	-0.474968
05398		9.560097	-2.810479	-2.804283	-0.887974	0.094451	-0.826572	-0.547363	0.516602	0.426514	0.377515	-0.761683	-0.217023	-0.479815
05399		9.687509	-3.601122	-2.953732	-0.866257	0.082318	-0.895345	-0.550049	0.501221	0.432373	0.368548	-0.762411	-0.218986	-0.484713
05400		9.598548	-3.332704	-2.903182	-0.766687	0.096685	-0.982545	-0.554443	0.492676	0.437256	0.359847	-0.762534	-0.221837	-0.489735
05401		9.572670	-2.683248	-2.695374	-0.691472	0.096648	-1.029884	-0.570068	0.481445	0.447998	0.351392	-0.762260	-0.225271	-0.494708
05402		9.758512	-2.140468	-2.729177	-0.643372	0.089546	-1.047251	-0.579102	0.464844	0.457031	0.343120	-0.761761	-0.229011	-0.499543
05403		9.887048	-2.123913	-2.727864	-0.706138	0.127700	-1.043168	-0.575928	0.460449	0.455811	0.334501	-0.761206	-0.232330	-0.504676
05404		9.795752	-2.638100	-2.928582	-0.685957	0.126976	-1.059058	-0.582031	0.449463	0.459961	0.325904	-0.760481	-0.235813	-0.509753
05405		9.937259	-2.814485	-3.003455	-0.602042	0.127104	-1.105173	-0.581543	0.444092	0.470703	0.317607	-0.759351	-0.239917	-0.514734
05406		10.020113	-2.529608	-3.071923	-0.504566	0.125576	-1.152924	-0.587402	0.435059	0.475342	0.309684	-0.757792	-0.244716	-0.519579
05407		10.007868	-1.841809	-3.035908	-0.469190	0.122074	-1.181311	-0.588379	0.429443	0.478271	0.301819	-0.756012	-0.249829	-0.524344
05408		10.085135	-1.437632	-3.010683	-0.512549	0.112866	-1.177993	-0.590820	0.421631	0.491455	0.293642	-0.754301	-0.254726	-0.529073
05409		10.164456	-1.236231	-2.988727	-0.573867	0.114537	-1.156166	-0.595947	0.414795	0.497803	0.285144	-0.752692	-0.259182	-0.533828
05410		10.074367	-1.127719	-3.115708	-0.629203	0.117067	-1.135188	-0.601318	0.403076	0.516357	0.276364	-0.751159	-0.263224	-0.538606
05411		10.063859	-1.083130	-3.155603	-0.678483	0.120417	-1.132609	-0.605469	0.400879	0.526611	0.267260	-0.749640	-0.266989	-0.543442
05412		10.247558	-1.042111	-3.127493	-0.727475	0.118997	-1.139045	-0.613281	0.387939	0.536865	0.257785	-0.748128	-0.270542	-0.548324
05413		10.372592	-0.788727	-3.036153	-0.803807	0.123738	-1.136252	-0.602051	0.385498	0.553223	0.247823	-0.746666	-0.273682	-0.553329
05414		10.308091	-0.784342	-3.083602	-0.894317	0.131843	-1.130871	-0.607178	0.366455	0.567383	0.237307	-0.745260	-0.276315	-0.558501
05415		10.408058	-1.004778	-3.043727	-0.937482	0.134591	-1.155646	-0.614258	0.361816	0.598389	0.226379	-0.743757	-0.278853	-0.563754
05416		10.428490	-1.086513	-3.047818	-0.944042	0.117532	-1.202060	-0.614258	0.344727	0.623779	0.214858	-0.742249	-0.281342	-0.568990
05417		10.388809	-1.082599	-2.847522	-0.921992	0.152634	-1.250502	-0.618408	0.333740	0.644775	0.203199	-0.740344	-0.284022	-0.574397
05418		10.803795	-0.696602	-2.796386	-0.874414	0.118410	-1.314205	-0.622314	0.309570	0.674316	0.191384	-0.738260	-0.287304	-0.579483
05419		10.619474	-0.423103	-2.935790	-0.924189	0.106295	-1.349168	-0.621582	0.289062	0.697266	0.178885	-0.736170	-0.290370	-0.584585
05420		10.590465	-0.521091	-2.773295	-0.862380	0.165754	-1.438076	-0.634033	0.247559	0.722412	0.166964	-0.733086	-0.294717	-0.589788
05421		10.533172	-0.410881	-2.659920	-0.773569	0.214983	-1.533314	-0.640381	0.224609	0.749023	0.155207	-0.729254	-0.299952	-0.595086
05422		10.457501	-0.166900	-2.699679	-0.771265	0.247242	-1.553696	-0.625732	0.191162	0.769043	0.143415	-0.725056	-0.305214	-0.600475
05423		10.478927	0.218627	-2.407928	-0.724087	0.273504	-1.574908	-0.640381	0.150146	0.791504	0.131840	-0.720463	-0.310741	-0.605799
05424		10.369544	0.476993	-2.223877	-0.613145	0.294053	-1.596409	-0.645020	0.108154	0.806396	0.120850	-0.715436	-0.316866	-0.610853
05425		10.099908	0.645928	-2.147985	-0.503575	0.300027	-1.589090	-0.647949	0.069336	0.817139	0.110545	-0.710144	-0.323432	-0.615522
05426		9.927340	0.519863	-1.947066	-0.416286	0.309786	-1.509994	-0.649170	0.030518	0.833496	0.101171	-0.704801	-0.329905	-0.619825
05427		9.892970	1.200678	-1.682675	-0.337264	0.287785	-1.409033	-0.651123	-0.010498	0.841064	0.092708	-0.699669	-0.336154	-0.623594
05428		9.707137	1.955622	-1.938026	-0.331108	0.290240	-1.235861	-0.652832	-0.039307	0.848145	0.085179	-0.694910	-0.341376	-0.627142
05429		9.553113	1.569939	-1.958122	-0.382328	0.316829	-1.041099	-0.667725	-0.075684	0.839355	0.078439	-0.690530	-0.345146	-0.630785
05430		9.278119	0.822741	-2.045429	-0.299007	0.307043	-0.894828	-0.659668	-0.124756	0.843262	0.072915	-0.686514	-0.348488	-0.633986
05431		9.272653	1.370861	-2.024698	-0.236021	0.298133	-0.760532	-0.661377	-0.142822	0.837646	0.068434	-0.682858	-0.351377	-0.636833
05432		9.315990	1.700861	-2.155773	-0.293647	0.284769	-0.588547	-0.668701	-0.176514	0.831299	0.064499	-0.679782	-0.352971	-0.639646
05433		9.238914	1.283906	-2.490469	-0.325841	0.260255	-0.451028	-0.677979	-0.199463	0.825928	0.061044	-0.677240	-0.353615	-0.642321
05434		9.206252	0.889069	-2.561702	-0.324688	0.240320	-0.367541	-0.678711	-0.218506	0.818848	0.057984	-0.675038	-0.353793	-0.644820
05435		9.050471	0.540885	-2.697363	-0.325889	0.227759	-0.299699	-0.677002	-0.234619	0.809570	0.055248	-0.673094	-0.353579	-0.647205
05436		8.993991	0.290551	-2.521642	-0.265356	0.224461	-0.262249	-0.676514	-0.249268	0.804443	0.053047	-0.671244	-0.353474	-0.649364
05437		8.833713	0.362984	-2.492512	-0.138996	0.184351	-0.240261	-0.674072	-0.261719	0.798096	0.051558	-0.669617	-0.353941	-0.650908
05438		8.795074	0.448028	-2.587988	0.003175	0.151788	-0.214368	-0.680664	-0.275879	0.797119	0.050910	-0.668182	-0.355042	-0.651833
05439		8.716933	0.509047	-2.723554	0.131586	0.116068	-0.173773	-0.681152	-0.274658	0.803711	0.051096	-0.667007	-0.356625	-0.652157
05440		8.622739	0.573300	-2.689241	0.249980	0.095971	-0.116387	-0.682129	-0.273682	0.811768	0.052195	-0.666063	-0.358537	-0.651987
05441		8.642972	0.925437	-2.804328	0.332969	0.048139	-0.028934	-0.687012	-0.272217	0.812988	0.054092	-0.665603	-0.360429	-0.651259
05442		8.554054	1.123127	-2.903580	0.384202	0.025549	0.072855	-0.696777	-0.256592	0.815186	0.056759	-0.665545	-0.362038	-0.650197
05443		8.531737	1.361441	-2.759211	0.393270	-0.020771	0.178549	-0.682373	-0.247070	0.819092	0.059913	-0.666048	-0.363126	-0.648791
05444		8.521691	1.465936	-2.778053	0.381723	-0.063543	0.291421	-0.688477	-0.225830	0.841553	0.063484	-0.667123	-0.363539	-0.647114
05445		8.608578	1.657430	-2.665959	0.365741	-0.093467	0.411623	-0.683105	-0.213867	0.845459	0.067526	-0.668721	-0.363204	-0.645240
05446		8.719266	1.747144	-2.591317	0.341971	-0.121007	0.519570	-0.685791	-0.172607	0.849365	0.071932	-0.670793	-0.362145	-0.643206
05447		8.759278	1.777366	-2.518470	0.334721	-0.137859	0.596753	-0.685303	-0.141602	0.862061	0.076661	-0.673174	-0.360612	-0.641030
05448		8.897392	1.706443	-2.427436	0.334656	-0.159572	0.674490	-0.681641	-0.118164	0.863525	0.081738	-0.675879	-0.358641	-0.638657
05449		9.067954	1.894250	-2.288464	0.318804	-0.178217	0.758552	-0.685303	-0.085938	0.852295	0.087115	-0.678916	-0.356107	-0.636138
05450		9.244777	1.846351	-2.235751	0.321523	-0.179881	0.822950	-0.684570	-0.057129	0.857422	0.092841	-0.682115	-0.353203	-0.633519
05451		9.337752	1.708888	-2.183010	0.348031	-0.189787	0.869552	-0.683105	-0.015381	0.851807	0.098930	-0.685442	-0.350159	-0.630690
05452		9.536265	1.636066	-2.197720	0.381379	-0.191051	0.903154	-0.678223	0.016846	0.840332	0.105377	-0.688801	-0.347074	-0.627686
05453		9.601835	1.823268	-2.238481	0.420246	-0.201186	0.925893	-0.677246	0.055176	0.833008	0.112131	-0.692193	-0.344043	-0.624443
05454		9.620689	1.794177	-2.271277	0.453554	-0.216116	0.949026	-0.673828	0.086914	0.814209	0.119147	-0.695644	-0.341039	-0.620948
05455		9.686830	1.597989	-2.463097	0.506107	-0.235792	0.969062	-0.684326	0.118652	0.790771	0.126505	-0.699142	-0.338179	-0.617116
05456		9.921772	1.539640	-2.565288	0.576934	-0.247337	0.967562	-0.673096	0.149902	0.772217	0.134226	-0.702556	-0.335672	-0.612962
05457		10.038536	1.809264	-2.886960	0.657371	-0.251855	0.944369	-0.667480	0.177490	0.751953	0.142274	-0.705771	-0.333684	-0.608523
05458		9.885145	2.525296	-2.625235	0.587359	-0.252397	0.948538	-0.672119	0.185547	0.728027	0.149917	-0.709016	-0.331285	-0.604211
05459		9.767953	3.004292	-2.505902	0.374471	-0.285130	0.989786	-0.666992	0.212402	0.709717	0.156405	-0.712742	-0.327582	-0.600189
05460		9.724323	2.470055	-2.330571	0.255495	-0.278248	1.016635	-0.665039	0.224609	0.689941	0.162323	-0.716600	-0.323090	-0.596447
05461		9.796035	1.800532	-2.184395	0.331985	-0.265228	0.960975	-0.652832	0.240479	0.671875	0.167471	-0.720587	-0.318203	-0.592836
05462		9.770981	1.638885	-1.963186	0.500424	-0.254818	0.863809	-0.658691	0.250488	0.659180	0.173362	-0.723866	-0.314887	-0.588905
05463		9.669016	1.477818	-1.936446	0.679661	-0.246925	0.780914	-0.651367	0.267334	0.644531	0.180070	-0.726502	-0.313050	-0.584610
05464		9.672957	1.342597	-1.731076	0.788016	-0.248781	0.756861	-0.648926	0.271484	0.633057	0.187427	-0.728793	-0.311996	-0.579992
05465		9.801446	1.204158	-1.762912	0.826162	-0.248286	0.770582	-0.650635	0.293945	0.609863	0.195096	-0.730976	-0.311038	-0.575211
05466		10.144028	1.081131	-1.723410	0.843117	-0.233515	0.792407	-0.640137	0.306641	0.607910	0.203188	-0.732945	-0.310186	-0.570343
05467		10.247239	0.990284	-2.036517	0.881185	-0.190470	0.795412	-0.643066	0.314697	0.591553	0.211605	-0.734586	-0.309370	-0.565595
05468		10.070658	1.059747	-2.108402	0.857673	-0.175926	0.814418	-0.643311	0.331055	0.574951	0.220040	-0.736144	-0.308331	-0.560898
05469		10.077052	1.176369	-2.205783	0.728688	-0.179628	0.858441	-0.635986	0.335693	0.565430	0.228118	-0.737857	-0.306698	-0.556296
05470		10.041684	1.054991	-2.324994	0.557043	-0.173311	0.892250	-0.616699	0.343750	0.560303	0.235294	-0.739888	-0.304025	-0.552061
05471		9.990893	0.979327	-2.446995	0.376445	-0.161602	0.902543	-0.618164	0.356201	0.554932	0.241414	-0.742188	-0.300413	-0.548296
05472		9.961564	0.778851	-2.464754	0.181370	-0.143804	0.897657	-0.614014	0.364746	0.549316	0.246333	-0.744736	-0.295886	-0.545105
05473		9.986446	0.511571	-2.526456	0.012022	-0.123799	0.891965	-0.613281	0.370605	0.549072	0.250208	-0.747481	-0.290569	-0.542436
05474		9.913022	0.291651	-2.520125	-0.129598	-0.094923	0.867243	-0.599609	0.375488	0.544678	0.253144	-0.750288	-0.284691	-0.540312
05475		9.895131	-0.086910	-2.572686	-0.209021	-0.072356	0.816809	-0.600586	0.377686	0.539795	0.255394	-0.753000	-0.278710	-0.538596
05476		9.839748	-0.439325	-2.591142	-0.235256	-0.056021	0.743217	-0.596436	0.379150	0.543457	0.257175	-0.755487	-0.273026	-0.537176
05477		9.868398	-0.577298	-2.509182	-0.191004	-0.036428	0.653184	-0.585449	0.380859	0.543457	0.258865	-0.757557	-0.268056	-0.535951
05478		9.779793	-0.683804	-2.426687	-0.112162	-0.016657	0.556951	-0.590576	0.379883	0.545898	0.260660	-0.759131	-0.263995	-0.534868
05479		9.695649	-0.759731	-2.441166	0.014331	0.001288	0.449745	-0.587158	0.389648	0.532227	0.262811	-0.760099	-0.261134	-0.533843
05480		9.630979	-0.774046	-2.442828	0.146209	0.013482	0.349084	-0.583496	0.393066	0.531982	0.265372	-0.760495	-0.259468	-0.532824
05481		9.634887	-0.528840	-2.396070	0.241506	0.029421	0.264856	-0.587891	0.402344	0.528564	0.268195	-0.760418	-0.258721	-0.531882
05482		9.459344	-0.411178	-2.486038	0.308331	0.028753	0.205509	-0.589844	0.397217	0.525879	0.271173	-0.760059	-0.258648	-0.530921
05483		9.434053	-0.291128	-2.658171	0.386119	0.036126	0.153747	-0.587646	0.403076	0.516846	0.274426	-0.759370	-0.259228	-0.529951
05484		9.347409	-0.057444	-2.687922	0.406273	0.046000	0.123242	-0.583740	0.401855	0.513672	0.277689	-0.758515	-0.260066	-0.529064
05485		9.319569	0.072782	-2.710956	0.361702	0.053670	0.114208	-0.586670	0.406738	0.513672	0.280642	-0.757700	-0.260746	-0.528339
05486		9.275340	-0.019588	-2.829492	0.297884	0.047578	0.110907	-0.589355	0.420654	0.506104	0.283160	-0.757047	-0.261181	-0.527717
05487		9.185855	-0.029846	-2.827725	0.233443	0.048501	0.104609	-0.587646	0.415283	0.501465	0.285241	-0.756522	-0.261370	-0.527254
05488		9.179597	-0.198729	-2.897239	0.161470	0.051757	0.097509	-0.587646	0.417236	0.502197	0.286841	-0.756136	-0.261281	-0.526985
05489		9.225186	-0.300981	-2.888874	0.095187	0.047609	0.071887	-0.593506	0.421387	0.499023	0.287900	-0.755868	-0.261075	-0.526894
05490		9.236213	-0.495797	-2.822937	0.022937	0.045257	0.040273	-0.590332	0.427979	0.503174	0.288358	-0.755714	-0.260757	-0.527021
05491		9.262328	-0.630480	-2.822545	-0.013812	0.041294	-0.006918	-0.589355	0.424561	0.499756	0.288367	-0.755563	-0.260587	-0.527317
05492		9.209261	-0.875418	-2.876061	-0.005462	0.049725	-0.071040	-0.583740	0.420898	0.494629	0.288163	-0.755215	-0.260838	-0.527802
05493		9.240219	-0.896920	-2.865474	0.000172	0.047957	-0.134610	-0.583252	0.416748	0.494385	0.287710	-0.754723	-0.261520	-0.528417
05494		9.319939	-0.719168	-2.843992	-0.019640	0.053163	-0.173670	-0.583496	0.425049	0.495850	0.286970	-0.754168	-0.262347	-0.529200
05495		9.282249	-0.794201	-2.904182	-0.037586	0.048546	-0.206110	-0.592529	0.416748	0.498291	0.285963	-0.753604	-0.263312	-0.530070
05496		9.311663	-1.079960	-2.887116	-0.018940	0.042932	-0.242663	-0.595703	0.422852	0.499268	0.284896	-0.752937	-0.264602	-0.530949
05497		9.214284	-1.064411	-2.805200	-0.001363	0.032389	-0.266969	-0.593262	0.411377	0.499512	0.283807	-0.752218	-0.266146	-0.531778
05498		9.211916	-0.987006	-2.912911	-0.003568	0.024542	-0.265344	-0.605713	0.414795	0.494385	0.282692	-0.751539	-0.267689	-0.532557
05499		9.164835	-1.011532	-2.867348	-0.018665	0.022935	-0.259571	-0.595947	0.410645	0.501953	0.281503	-0.750913	-0.269131	-0.533343
05500		9.231377	-1.002530	-2.894002	-0.031901	0.003694	-0.251064	-0.594238	0.415039	0.506348	0.280223	-0.750419	-0.270506	-0.534016
05501		9.224516	-0.876860	-2.891176	-0.073982	-0.006365	-0.232565	-0.599365	0.416260	0.502930	0.278739	-0.750107	-0.271601	-0.534675
05502		9.245806	-1.006927	-2.973482	-0.115783	-0.010194	-0.211951	-0.600586	0.412842	0.504395	0.277074	-0.749953	-0.272390	-0.535355
05503		9.268699	-1.068094	-2.940800	-0.145343	-0.014271	-0.197138	-0.601562	0.413818	0.507812	0.275280	-0.749916	-0.272963	-0.536040
05504		9.234435	-1.057343	-2.915409	-0.179958	-0.017284	-0.183166	-0.599365	0.410400	0.514893	0.273323	-0.750001	-0.273300	-0.536750
05505		9.234228	-1.054071	-2.869865	-0.214114	-0.028370	-0.166732	-0.604980	0.397461	0.521240	0.271200	-0.750247	-0.273405	-0.537428
05506		9.294399	-1.197280	-2.866331	-0.224041	-0.028621	-0.145618	-0.599121	0.402100	0.522217	0.269107	-0.750562	-0.273334	-0.538077
05507		9.336002	-1.206574	-2.813926	-0.223753	-0.032793	-0.121217	-0.600586	0.403076	0.523682	0.267114	-0.750947	-0.273119	-0.538641
05508		9.310063	-1.272289	-2.749625	-0.202587	-0.036203	-0.114414	-0.593994	0.395996	0.528320	0.265276	-0.751313	-0.272963	-0.539119
05509		9.363494	-1.411348	-2.754849	-0.160458	-0.045000	-0.120948	-0.588135	0.394775	0.529785	0.263652	-0.751608	-0.273056	-0.539458
05510		9.440547	-1.524171	-2.730244	-0.117545	-0.045083	-0.135259	-0.590820	0.389893	0.532715	0.262231	-0.751774	-0.273430	-0.539728
05511		9.443907	-1.538879	-2.753851	-0.072105	-0.036480	-0.148366	-0.595215	0.390137	0.523193	0.261056	-0.751772	-0.274070	-0.539976
05512		9.454070	-1.512083	-2.772837	-0.032569	-0.029364	-0.166481	-0.596924	0.393799	0.539795	0.260063	-0.751609	-0.274985	-0.540217
05513		9.454796	-1.454540	-2.745404	-0.002212	-0.024686	-0.174168	-0.592529	0.393555	0.531006	0.259237	-0.751340	-0.276073	-0.540433
05514		9.431575	-1.320834	-2.716895	0.019730	-0.029459	-0.176134	-0.600098	0.400146	0.537598	0.258529	-0.751040	-0.277282	-0.540571
05515		9.428645	-1.136810	-2.728644	0.003922	-0.029988	-0.159323	-0.599609	0.389893	0.545654	0.257796	-0.750813	-0.278314	-0.540705
05516		9.369500	-1.127274	-2.718440	-0.030508	-0.024569	-0.128461	-0.597656	0.390869	0.542480	0.257000	-0.750707	-0.278986	-0.540886
05517		9.384257	-1.215415	-2.695170	-0.058151	-0.025878	-0.101357	-0.593262	0.391602	0.541260	0.256149	-0.750728	-0.279366	-0.541064
05518		9.409207	-1.336050	-2.716951	-0.065266	-0.022483	-0.087431	-0.593994	0.388916	0.547607	0.255325	-0.750781	-0.279618	-0.541250
05519		9.404817	-1.310801	-2.690896	-0.065843	-0.021822	-0.078481	-0.594971	0.386719	0.551025	0.254540	-0.750852	-0.279810	-0.541421
05520		9.410784	-1.205095	-2.659336	-0.079913	-0.015062	-0.063985	-0.598145	0.381592	0.549316	0.253749	-0.750956	-0.279832	-0.541637
05521		9.393862	-1.190118	-2.673504	-0.094878	-0.006612	-0.040691	-0.597412	0.381104	0.551025	0.252989	-0.751108	-0.279622	-0.541890
05522		9.343649	-1.247727	-2.672191	-0.105374	-0.006207	-0.023849	-0.587891	0.384766	0.559570	0.252241	-0.751319	-0.279258	-0.542135
05523		9.368569	-1.316724	-2.676454	-0.097399	-0.006253	-0.011725	-0.595703	0.383301	0.555664	0.251597	-0.751540	-0.278853	-0.542335
05524		9.403948	-1.294466	-2.691628	-0.068616	0.000589	-0.003659	-0.596191	0.380371	0.556396	0.251187	-0.751689	-0.278513	-0.542493
05525		9.404561	-1.145158	-2.693695	-0.054967	0.000866	0.002957	-0.590820	0.381836	0.550781	0.250894	-0.751824	-0.278191	-0.542607
05526		9.447998	-1.091670	-2.771290	-0.062406	0.003217	0.014099	-0.596191	0.383789	0.552490	0.250610	-0.751989	-0.277761	-0.542730
05527		9.394281	-1.202745	-2.735216	-0.076953	0.005245	0.028236	-0.592773	0.377441	0.564209	0.250304	-0.752208	-0.277171	-0.542870
05528		9.403857	-1.256838	-2.746529	-0.048916	0.004800	0.024788	-0.598633	0.383057	0.556152	0.250157	-0.752362	-0.276731	-0.542948
05529		9.396593	-1.173757	-2.751118	-0.013219	0.005678	0.017709	-0.597168	0.378418	0.559326	0.250205	-0.752422	-0.276493	-0.542965
05530		9.374037	-1.152829	-2.746865	0.002638	0.007948	0.019105	-0.591064	0.382080	0.559082	0.250364	-0.752441	-0.276314	-0.542956
05531		9.403810	-1.252995	-2.760908	0.016698	0.009890	0.017196	-0.593750	0.378418	0.549072	0.250607	-0.752418	-0.276206	-0.542931
05532		9.381648	-1.270937	-2.806815	0.029143	0.009180	0.011545	-0.597656	0.384033	0.558350	0.250902	-0.752359	-0.276190	-0.542884
05533		9.367036	-1.289344	-2.865380	0.040500	0.004482	0.014469	-0.585205	0.379150	0.547607	0.251271	-0.752305	-0.276216	-0.542775
05534		9.296368	-1.416604	-2.922904	0.039500	0.008791	0.018018	-0.599854	0.378662	0.552979	0.251660	-0.752242	-0.276206	-0.542688
05535		9.292175	-1.611811	-2.887308	0.039421	0.006460	0.021049	-0.592041	0.373047	0.561035	0.252057	-0.752196	-0.276181	-0.542579
05536		9.340992	-1.820196	-2.921770	0.052107	0.006387	0.023896	-0.596436	0.389160	0.548340	0.252548	-0.752131	-0.276195	-0.542434
05537		9.286789	-1.925902	-2.899545	0.058505	0.004014	0.026619	-0.601318	0.380859	0.561035	0.253086	-0.752070	-0.276224	-0.542253
05538		9.298579	-1.943695	-2.940837	0.076315	-0.003068	0.042202	-0.595947	0.378174	0.551270	0.253791	-0.752040	-0.276250	-0.541953
05539		9.281692	-1.883264	-2.914934	0.089814	-0.011784	0.075140	-0.594727	0.387451	0.540283	0.254711	-0.752096	-0.276147	-0.541496
05540		9.269068	-1.765530	-2.922601	0.076136	-0.024272	0.131289	-0.598145	0.387695	0.534912	0.255770	-0.752366	-0.275655	-0.540872
05541		9.286725	-1.920550	-2.959056	0.057248	-0.025792	0.193336	-0.592041	0.383545	0.544434	0.256986	-0.752824	-0.274691	-0.540147
05542		9.344344	-2.216046	-2.984358	0.037333	-0.030054	0.244690	-0.597168	0.384766	0.546631	0.258300	-0.753460	-0.273321	-0.539328
05543		9.321042	-2.706903	-3.000551	0.030789	-0.027288	0.280577	-0.599121	0.383789	0.535156	0.259740	-0.754175	-0.271689	-0.538461
05544		9.378049	-2.846331	-2.888660	0.053828	-0.040706	0.312808	-0.596924	0.384033	0.538818	0.261439	-0.754970	-0.269982	-0.537383
05545		9.452797	-2.840611	-2.923150	0.092577	-0.042024	0.350832	-0.598877	0.388184	0.531494	0.263548	-0.755766	-0.268208	-0.536121
05546		9.413002	-2.829731	-2.888175	0.142124	-0.046892	0.387097	-0.604492	0.388916	0.529297	0.266120	-0.756548	-0.266432	-0.534630
05547		9.482653	-2.702085	-2.790067	0.199297	-0.048773	0.433374	-0.590820	0.391602	0.527832	0.269252	-0.757303	-0.264618	-0.532890
05548		9.519946	-2.685822	-2.894058	0.225802	-0.053049	0.502267	-0.592529	0.395264	0.518799	0.272845	-0.758156	-0.262490	-0.530899
05549		9.462939	-2.742027	-2.930024	0.235713	-0.056535	0.559289	-0.597656	0.389404	0.513672	0.276739	-0.759109	-0.260045	-0.528721
05550		9.427596	-2.780169	-2.936403	0.233649	-0.061165	0.602497	-0.592529	0.400146	0.511719	0.280794	-0.760158	-0.257319	-0.526403
05551		9.485694	-2.798745	-3.009081	0.217719	-0.069356	0.641600	-0.591064	0.407715	0.500000	0.284895	-0.761341	-0.254286	-0.523959
05552		9.525937	-3.003468	-3.024667	0.197075	-0.058455	0.680560	-0.583252	0.408447	0.509277	0.289049	-0.762582	-0.250879	-0.521516
05553		9.517387	-3.152337	-3.002971	0.219757	-0.063153	0.702589	-0.582520	0.417236	0.493652	0.293423	-0.763806	-0.247432	-0.518923
05554		9.528689	-3.172806	-2.981205	0.256915	-0.064831	0.719482	-0.583740	0.413818	0.490723	0.298093	-0.764951	-0.244031	-0.516179
05555		9.538061	-3.272377	-2.967205	0.315710	-0.076213	0.727701	-0.577148	0.421875	0.491211	0.303137	-0.765981	-0.240846	-0.513199
05556		9.619349	-3.288675	-2.987596	0.392007	-0.072012	0.732533	-0.573975	0.428467	0.483643	0.308685	-0.766775	-0.237934	-0.510057
05557		9.658753	-3.343099	-2.990661	0.441578	-0.066978	0.740647	-0.572021	0.439453	0.486084	0.314578	-0.767396	-0.235154	-0.506801
05558		9.596657	-3.524273	-2.926231	0.486402	-0.060475	0.749907	-0.572998	0.436523	0.477539	0.320794	-0.767847	-0.232474	-0.503446
05559		9.616523	-3.647284	-2.920711	0.564399	-0.059837	0.751999	-0.563721	0.453613	0.469238	0.327500	-0.768045	-0.230091	-0.499909
05560		9.572622	-3.635009	-2.922466	0.638780	-0.059427	0.743903	-0.569336	0.456299	0.471191	0.334628	-0.767972	-0.228053	-0.496221
05561		9.592307	-3.502532	-2.896496	0.685406	-0.049235	0.743857	-0.560303	0.471680	0.459229	0.342051	-0.767672	-0.226163	-0.492475
05562		9.579702	-3.390690	-2.803450	0.689038	-0.041698	0.762141	-0.567627	0.479004	0.457031	0.349562	-0.767308	-0.224132	-0.488682
05563		9.579633	-3.189625	-2.819602	0.654435	-0.037759	0.788615	-0.553711	0.475586	0.452637	0.356940	-0.767020	-0.221763	-0.484866
05564		9.495834	-2.946037	-2.820508	0.578700	-0.026990	0.828617	-0.556396	0.498291	0.439941	0.363990	-0.766931	-0.218785	-0.481105
05565		9.389891	-2.951790	-2.721635	0.471778	-0.019897	0.870665	-0.552979	0.504883	0.444824	0.370510	-0.767159	-0.215073	-0.477424
05566		9.297101	-3.052503	-2.659935	0.372739	-0.011632	0.902156	-0.551758	0.517578	0.430176	0.376512	-0.767663	-0.210727	-0.473843
05567		9.186469	-3.262570	-2.678311	0.290610	-0.006409	0.914183	-0.540283	0.520996	0.419922	0.382018	-0.768373	-0.205950	-0.470372
05568		9.146124	-3.341253	-2.560686	0.260551	-0.004937	0.912593	-0.538330	0.530518	0.429199	0.387302	-0.769120	-0.201050	-0.466937
05569		9.047260	-3.236617	-2.521574	0.261238	0.001171	0.907990	-0.532959	0.536377	0.435547	0.392558	-0.769784	-0.196150	-0.463527
05570		8.978154	-3.153609	-2.513676	0.263416	0.002501	0.884866	-0.522705	0.546143	0.427490	0.397715	-0.770349	-0.191392	-0.460168
05571		8.877144	-3.124449	-2.470311	0.238967	0.006818	0.867852	-0.514648	0.554443	0.417236	0.402631	-0.770905	-0.186626	-0.456907
05572		8.810672	-3.200857	-2.561118	0.219369	0.013502	0.832334	-0.515625	0.562012	0.413818	0.407273	-0.771403	-0.181983	-0.453815
05573		8.639300	-3.099285	-2.601581	0.213950	0.009166	0.779810	-0.510742	0.572998	0.416748	0.411653	-0.771818	-0.177665	-0.450859
05574		8.560439	-2.997286	-2.541469	0.201514	0.016449	0.721387	-0.498535	0.578613	0.417480	0.415725	-0.772127	-0.173645	-0.448151
05575		8.435325	-3.029660	-2.448651	0.198160	0.018124	0.655341	-0.490234	0.585938	0.409912	0.419514	-0.772318	-0.170028	-0.445672
05576		8.271434	-3.019007	-2.408260	0.222727	0.019817	0.578795	-0.496338	0.593750	0.411865	0.423165	-0.772284	-0.166987	-0.443424
05577		8.164408	-2.810596	-2.387102	0.249213	0.012408	0.501417	-0.490234	0.600586	0.410400	0.426677	-0.772056	-0.164566	-0.441355
05578		8.065579	-2.575591	-2.338998	0.248981	0.015627	0.436019	-0.484863	0.593750	0.404541	0.429940	-0.771712	-0.162553	-0.439532
05579		8.036135	-2.498349	-2.344283	0.214974	0.015124	0.370189	-0.477295	0.605957	0.407715	0.432734	-0.771390	-0.160841	-0.437983
05580		7.884301	-2.515836	-2.349411	0.182858	0.014884	0.304097	-0.473633	0.605469	0.400391	0.435073	-0.771087	-0.159439	-0.436710
05581		7.817290	-2.482153	-2.493313	0.164850	0.010684	0.220684	-0.478760	0.617188	0.401123	0.436982	-0.770748	-0.158525	-0.435735
05582		7.832450	-2.196874	-2.445993	0.135049	0.004104	0.128699	-0.480713	0.614258	0.404785	0.438352	-0.770416	-0.158120	-0.435092
05583		7.872408	-2.083187	-2.464215	0.061303	0.006422	0.062020	-0.473633	0.618652	0.402588	0.439006	-0.770257	-0.157870	-0.434805
05584		7.739348	-2.201541	-2.385617	-0.014991	0.006998	-0.011560	-0.472168	0.620117	0.399658	0.438902	-0.770277	-0.157817	-0.434893
05585		7.710687	-2.379521	-2.437622	-0.042846	0.000449	-0.103789	-0.479980	0.617920	0.397217	0.438273	-0.770302	-0.158283	-0.435314
05586		7.745587	-2.300613	-2.345677	-0.063807	-0.005889	-0.192667	-0.478516	0.610596	0.403564	0.437175	-0.770307	-0.159270	-0.436048
05587		7.875603	-2.266997	-2.323930	-0.095789	-0.007958	-0.262968	-0.480469	0.610596	0.401123	0.435610	-0.770340	-0.160602	-0.437066
05588		7.952774	-2.406372	-2.281169	-0.118347	-0.007986	-0.326460	-0.485352	0.609131	0.400635	0.433663	-0.770365	-0.162261	-0.438344
05589		8.067765	-2.733136	-2.362430	-0.124057	-0.005967	-0.402850	-0.486084	0.599854	0.401855	0.431397	-0.770291	-0.164384	-0.439916
05590		8.222855	-2.870313	-2.348948	-0.095698	-0.006067	-0.486266	-0.488770	0.592529	0.406250	0.428998	-0.769990	-0.167146	-0.441743
05591		8.347617	-2.841539	-2.351828	-0.088300	-0.001585	-0.566255	-0.490723	0.589600	0.408447	0.426349	-0.769520	-0.170433	-0.443868
05592		8.394765	-2.739019	-2.336139	-0.117778	-0.006646	-0.622262	-0.496094	0.586914	0.403809	0.423283	-0.769074	-0.173985	-0.446191
05593		8.601446	-2.792290	-2.344292	-0.172916	0.001325	-0.662149	-0.508545	0.576416	0.411865	0.419713	-0.768711	-0.177558	-0.448773
05594		8.892135	-3.403708	-2.370935	-0.198353	0.008919	-0.705534	-0.515625	0.577881	0.409668	0.415813	-0.768318	-0.181282	-0.451580
05595		8.913003	-4.067768	-2.205934	-0.085305	0.019477	-0.808427	-0.512939	0.564941	0.407959	0.412247	-0.767305	-0.186049	-0.454622
05596		8.972546	-4.198858	-2.114458	0.113576	0.006953	-0.919543	-0.521240	0.562744	0.408691	0.409490	-0.765444	-0.192313	-0.457635
05597		8.915958	-3.651624	-2.012030	0.310689	0.013966	-1.008193	-0.531250	0.554199	0.408691	0.407635	-0.762688	-0.199858	-0.460648
05598		8.938447	-2.974407	-2.188762	0.422824	0.013364	-1.062833	-0.541748	0.554199	0.395752	0.406248	-0.759399	-0.208166	-0.463618
05599		9.185818	-2.777134	-2.397763	0.371017	0.018395	-1.084381	-0.545410	0.543457	0.393555	0.404421	-0.756159	-0.216377	-0.466742
05600		9.291597	-2.738854	-2.553614	0.183896	0.024415	-1.084956	-0.551270	0.545898	0.392090	0.401387	-0.753459	-0.223825	-0.470203
05601		9.255121	-2.576959	-2.648770	0.001561	0.018029	-1.079140	-0.563477	0.534912	0.398682	0.397184	-0.751342	-0.230527	-0.473906
05602		9.318209	-2.295808	-2.592477	-0.157595	-0.000058	-1.049101	-0.574707	0.530518	0.391846	0.392036	-0.749821	-0.236456	-0.477666
05603		9.379450	-1.849294	-2.544263	-0.251309	-0.023031	-1.008928	-0.569336	0.507324	0.398438	0.386386	-0.748720	-0.241819	-0.481299
05604		9.495536	-1.263644	-2.487500	-0.341492	-0.023715	-0.938905	-0.577637	0.510010	0.402344	0.380422	-0.747998	-0.246370	-0.484851
05605		9.597676	-1.246096	-2.525299	-0.456903	-0.018276	-0.864994	-0.574707	0.491699	0.405029	0.374022	-0.747720	-0.249962	-0.488407
05606		9.675722	-1.573357	-2.669575	-0.543186	-0.015330	-0.824437	-0.585449	0.488525	0.409180	0.367228	-0.747733	-0.252926	-0.492004
05607		9.723050	-1.754315	-2.728659	-0.577731	0.002871	-0.827469	-0.580566	0.483154	0.424561	0.360218	-0.747717	-0.255696	-0.495763
05608		9.708370	-1.746177	-2.795936	-0.591930	0.005813	-0.868920	-0.582031	0.479492	0.430908	0.352927	-0.747589	-0.258639	-0.499660
05609		9.792832	-1.727084	-2.911746	-0.584348	0.008897	-0.927130	-0.582275	0.468506	0.426758	0.345419	-0.747239	-0.261947	-0.503691
05610		9.856414	-1.505889	-2.893449	-0.594355	0.022009	-0.989855	-0.588379	0.467041	0.439697	0.337582	-0.746660	-0.265543	-0.507962
05611		9.940613	-1.339149	-2.983574	-0.650262	0.027377	-1.033650	-0.592041	0.461914	0.454102	0.329189	-0.746044	-0.269134	-0.512464
05612		10.114546	-1.413164	-2.880377	-0.699418	0.040170	-1.067824	-0.597656	0.447021	0.458008	0.320338	-0.745351	-0.272665	-0.517194
05613		10.188835	-1.385108	-2.879705	-0.708556	0.041096	-1.103553	-0.595703	0.433594	0.461914	0.311239	-0.744509	-0.276344	-0.521987
05614		10.308894	-1.313039	-2.858724	-0.687958	0.048256	-1.149110	-0.597656	0.423584	0.480225	0.302049	-0.743387	-0.280343	-0.526831
05615		10.501969	-1.296472	-2.941514	-0.670768	0.054129	-1.187865	-0.601074	0.421875	0.487793	0.292770	-0.742009	-0.284607	-0.531702
05616		10.671533	-1.145895	-2.897249	-0.700411	0.067971	-1.207469	-0.602539	0.417236	0.510498	0.283215	-0.740497	-0.288788	-0.536706
05617		10.730533	-1.002182	-2.971594	-0.764688	0.077706	-1.220942	-0.610840	0.408203	0.519531	0.273188	-0.738957	-0.292702	-0.541882
05618		10.839373	-1.095157	-2.917308	-0.859548	0.070553	-1.237449	-0.613037	0.400146	0.543457	0.262443	-0.737512	-0.296260	-0.547202
05619		10.755002	-1.253937	-2.896170	-0.926358	0.059666	-1.272534	-0.616455	0.391113	0.564941	0.251058	-0.736054	-0.299703	-0.552605
05620		10.776394	-1.175681	-2.819359	-0.887733	0.100091	-1.351754	-0.615723	0.382080	0.587646	0.239603	-0.734000	-0.303670	-0.558228
05621		10.983781	-0.792835	-2.868865	-0.884834	0.137099	-1.425157	-0.621094	0.365723	0.613037	0.227500	-0.731648	-0.307516	-0.564242
05622		11.264700	-0.386787	-2.778343	-0.947239	0.204504	-1.477863	-0.629639	0.352539	0.635010	0.214788	-0.728869	-0.311079	-0.570829
05623		10.855219	0.108614	-2.730224	-0.896570	0.305577	-1.546740	-0.633057	0.320801	0.663330	0.202219	-0.725207	-0.315005	-0.577888
05624		10.466303	0.633258	-1.804165	-0.921420	0.344279	-1.490851	-0.639893	0.295654	0.693359	0.189584	-0.721514	-0.318076	-0.585067
05625		10.470082	0.521360	-2.007625	-0.856461	0.318774	-1.438350	-0.648193	0.279297	0.725342	0.178243	-0.717419	-0.322006	-0.591483
05626		10.382777	0.127316	-1.650788	-0.673004	0.333117	-1.418170	-0.648438	0.235352	0.753662	0.168104	-0.712897	-0.326634	-0.597351
05627		10.446245	0.585789	-1.613287	-0.497012	0.314548	-1.383614	-0.656006	0.204834	0.776855	0.159106	-0.708196	-0.331903	-0.602482
05628		10.400553	1.028526	-1.762194	-0.438831	0.332298	-1.296159	-0.661621	0.157959	0.811523	0.150918	-0.703466	-0.336873	-0.607352
05629		10.338180	0.924568	-1.984601	-0.445060	0.331676	-1.197197	-0.672363	0.110840	0.829102	0.143174	-0.698933	-0.341186	-0.612034
05630		10.103830	1.106097	-2.101997	-0.533025	0.317557	-1.094852	-0.670654	0.058594	0.841797	0.135385	-0.694789	-0.344430	-0.616691
05631		10.089175	1.254007	-2.239936	-0.620378	0.319392	-1.018040	-0.672119	0.016113	0.853027	0.127478	-0.690880	-0.346740	-0.621455
05632		9.917692	1.128269	-2.356264	-0.688722	0.307345	-0.932974	-0.673340	-0.035645	0.849365	0.119571	-0.687281	-0.348180	-0.626193
05633		9.864224	1.240304	-2.254324	-0.760868	0.298959	-0.839159	-0.680664	-0.085205	0.852051	0.111706	-0.684005	-0.348680	-0.630937
05634		9.821436	1.507132	-2.172119	-0.816732	0.277486	-0.748112	-0.687988	-0.135254	0.831543	0.103931	-0.681096	-0.348352	-0.635577
05635		9.647508	1.348443	-2.124314	-0.858208	0.259331	-0.668183	-0.689697	-0.171387	0.808105	0.096284	-0.678492	-0.347334	-0.640107
05636		9.528759	1.098494	-2.124728	-0.797507	0.248508	-0.618283	-0.697754	-0.213623	0.795166	0.089209	-0.675988	-0.346335	-0.644309
05637		9.362953	1.247163	-1.981235	-0.724795	0.247704	-0.559485	-0.711182	-0.241455	0.759277	0.082853	-0.673560	-0.345370	-0.648206
05638		9.286200	1.127089	-1.956417	-0.650967	0.256949	-0.529197	-0.707275	-0.269287	0.742676	0.077099	-0.671081	-0.344606	-0.651884
05639		9.206022	0.808204	-2.022704	-0.512952	0.246320	-0.536497	-0.721680	-0.289795	0.727783	0.072045	-0.668520	-0.344620	-0.655079
05640		9.143455	0.806550	-2.138843	-0.362072	0.228591	-0.548500	-0.718750	-0.301270	0.699463	0.067715	-0.665908	-0.345519	-0.657722
05641		8.981825	1.219794	-2.024203	-0.262964	0.224552	-0.530879	-0.729492	-0.309326	0.684814	0.064020	-0.663295	-0.346852	-0.660026
05642		8.753783	1.248187	-2.065408	-0.199572	0.205314	-0.499112	-0.733887	-0.322998	0.669678	0.060795	-0.660832	-0.348358	-0.662006
05643		8.522966	1.358160	-2.122522	-0.165164	0.172838	-0.439064	-0.730713	-0.333252	0.652832	0.057998	-0.658694	-0.349731	-0.663662
05644		8.455054	1.318911	-2.183142	-0.165909	0.140657	-0.351068	-0.731689	-0.326660	0.651611	0.055590	-0.656984	-0.350625	-0.665090
05645		8.304533	1.178976	-2.182103	-0.162511	0.104108	-0.256172	-0.737061	-0.340820	0.634521	0.053621	-0.655749	-0.351030	-0.666256
05646		8.200105	1.054675	-2.197084	-0.128876	0.066998	-0.151097	-0.734863	-0.336182	0.622559	0.052313	-0.655011	-0.351060	-0.667068
05647		8.268392	0.890236	-2.226638	-0.075209	0.024974	-0.044900	-0.746094	-0.338379	0.620361	0.051767	-0.654797	-0.350825	-0.667445
05648		8.269331	0.926521	-2.264450	-0.013961	-0.016811	0.058487	-0.738770	-0.335938	0.623535	0.052010	-0.655093	-0.350381	-0.667369
05649		8.405430	0.918994	-2.387095	0.028682	-0.067365	0.160666	-0.735107	-0.348389	0.625977	0.052909	-0.655952	-0.349637	-0.666845
05650		8.508369	0.937914	-2.434697	0.054098	-0.107627	0.261007	-0.743652	-0.339355	0.628418	0.054389	-0.657316	-0.348499	-0.665977
05651		8.578587	1.064079	-2.400295	0.081301	-0.137112	0.336777	-0.738281	-0.332031	0.636719	0.056354	-0.659050	-0.347106	-0.664827
05652		8.643936	0.970487	-2.416467	0.130105	-0.169211	0.410491	-0.724365	-0.329102	0.639160	0.058905	-0.661145	-0.345586	-0.663315
05653		8.700598	1.048488	-2.338937	0.190547	-0.209340	0.469936	-0.722900	-0.323730	0.658447	0.062002	-0.663595	-0.344085	-0.661365
05654		8.821492	1.269769	-2.215595	0.227429	-0.230512	0.525791	-0.729004	-0.310303	0.677979	0.065552	-0.666288	-0.342478	-0.659145
05655		8.912007	1.393363	-2.193333	0.264893	-0.256337	0.591309	-0.716064	-0.304443	0.693604	0.069595	-0.669272	-0.340715	-0.656617
05656		8.993636	1.415546	-2.234240	0.289327	-0.274054	0.656370	-0.714844	-0.288574	0.724365	0.074079	-0.672498	-0.338718	-0.653856
05657		9.145954	1.275231	-2.267706	0.313277	-0.293260	0.706242	-0.714111	-0.274414	0.735352	0.078913	-0.675927	-0.336568	-0.650859
05658		9.184468	1.219456	-2.203298	0.352301	-0.316360	0.731188	-0.698242	-0.251221	0.760986	0.084035	-0.679492	-0.334484	-0.647571
05659		9.255486	1.218634	-2.208803	0.420774	-0.342678	0.749160	-0.700684	-0.234131	0.787109	0.089565	-0.683164	-0.332666	-0.643893
05660		9.192769	1.074858	-2.342044	0.512875	-0.367860	0.771606	-0.687988	-0.191162	0.805420	0.095666	-0.686920	-0.331210	-0.639756
05661		9.173351	0.638017	-2.646474	0.629819	-0.408452	0.785570	-0.685791	-0.159912	0.821533	0.102394	-0.690787	-0.330303	-0.635003
05662		9.476873	0.405588	-2.548510	0.768998	-0.456854	0.802211	-0.670166	-0.116943	0.847168	0.109869	-0.694774	-0.330045	-0.629514
05663		10.021030	1.491393	-2.452374	0.799012	-0.475465	0.850255	-0.654053	-0.066162	0.853760	0.117710	-0.698890	-0.329646	-0.623723
05664		10.106119	2.439084	-2.217912	0.708086	-0.437977	0.963386	-0.637207	-0.020752	0.854004	0.125701	-0.703133	-0.328040	-0.618218
05665		10.131689	2.328392	-2.268893	0.576025	-0.442635	1.090727	-0.641113	0.030518	0.853271	0.133546	-0.707802	-0.324974	-0.612841
05666		10.145950	1.848098	-2.415917	0.510661	-0.434526	1.163909	-0.640625	0.081787	0.847900	0.141385	-0.712612	-0.321093	-0.607531
05667		10.117172	1.072731	-2.457191	0.510230	-0.449766	1.159912	-0.632568	0.117676	0.827637	0.149142	-0.717397	-0.317211	-0.602059
05668		10.486488	0.906791	-2.178124	0.575785	-0.441157	1.098632	-0.629883	0.159180	0.814697	0.156989	-0.721805	-0.313973	-0.596466
05669		10.669015	1.360236	-1.717049	0.651632	-0.387083	1.009998	-0.617432	0.197266	0.801514	0.164976	-0.725528	-0.311536	-0.591047
05670		10.574782	1.978977	-1.727269	0.678914	-0.352086	0.948491	-0.623779	0.219482	0.777588	0.172898	-0.728801	-0.309524	-0.585790
05671		10.443234	1.483959	-2.014194	0.696385	-0.296199	0.891499	-0.612549	0.253418	0.757324	0.180774	-0.731553	-0.307831	-0.580853
05672		10.348511	1.174555	-2.100471	0.765192	-0.280662	0.793462	-0.614746	0.277588	0.735352	0.188618	-0.733805	-0.307018	-0.575929
05673		10.264115	1.225601	-2.098960	0.823004	-0.251393	0.710379	-0.603760	0.292725	0.711182	0.196475	-0.735545	-0.306916	-0.571116
05674		10.229376	1.182665	-2.064403	0.857435	-0.237571	0.653513	-0.603271	0.319580	0.679688	0.204291	-0.736952	-0.307278	-0.566345
05675		10.268506	1.003979	-2.238895	0.951854	-0.197644	0.602880	-0.607910	0.327393	0.658936	0.211581	-0.738323	-0.307103	-0.561962
05676		10.185143	0.878988	-2.422716	1.036044	-0.161876	0.554987	-0.608643	0.354248	0.648926	0.219409	-0.739100	-0.307724	-0.557581
05677		10.133889	1.151055	-2.660817	1.059630	-0.141699	0.541817	-0.604736	0.370605	0.620605	0.227518	-0.739550	-0.308666	-0.553196
05678		9.992575	1.369005	-2.932110	0.974233	-0.124381	0.559658	-0.592529	0.378906	0.608154	0.235409	-0.739952	-0.309294	-0.548990
05679		9.867430	1.518031	-2.807738	0.796330	-0.115486	0.602936	-0.600830	0.391113	0.594727	0.242426	-0.740705	-0.308821	-0.545174
05680		9.793111	1.613803	-2.845029	0.597247	-0.129082	0.651322	-0.597168	0.393799	0.578857	0.248480	-0.741945	-0.307276	-0.541624
05681		9.650589	1.355990	-3.019701	0.459267	-0.126201	0.667676	-0.596436	0.405273	0.572266	0.254055	-0.743289	-0.305387	-0.538254
05682		9.638325	0.981094	-2.881850	0.367949	-0.127201	0.642596	-0.594482	0.406738	0.559570	0.258937	-0.744732	-0.303234	-0.535140
05683		9.694619	0.913536	-2.929392	0.330895	-0.123416	0.584783	-0.594238	0.416504	0.551270	0.263329	-0.746065	-0.301259	-0.532249
05684		9.636081	1.199530	-2.856781	0.261474	-0.103111	0.528339	-0.584229	0.417969	0.541016	0.267081	-0.747294	-0.299274	-0.529767
05685		9.626429	0.997536	-2.724042	0.196454	-0.076695	0.462777	-0.587158	0.410156	0.535645	0.270197	-0.748371	-0.297349	-0.527748
05686		9.569721	0.709967	-2.690415	0.191696	-0.067236	0.369795	-0.589111	0.420166	0.534912	0.272891	-0.749174	-0.295958	-0.526002
05687		9.556824	0.546892	-2.735659	0.206289	-0.046102	0.267731	-0.591064	0.423096	0.530273	0.275277	-0.749589	-0.295220	-0.524579
05688		9.611886	0.580367	-2.701712	0.194686	-0.037683	0.179341	-0.589355	0.418213	0.524658	0.277222	-0.749771	-0.294964	-0.523438
05689		9.546659	0.777896	-2.579292	0.162361	-0.018000	0.117033	-0.582764	0.428955	0.523438	0.278739	-0.749785	-0.294911	-0.522642
05690		9.437579	0.738395	-2.543463	0.131332	-0.009815	0.076631	-0.592041	0.426270	0.521973	0.279904	-0.749733	-0.294959	-0.522067
05691		9.444529	0.439869	-2.583001	0.117298	0.001692	0.048660	-0.593994	0.425293	0.523438	0.280885	-0.749592	-0.295095	-0.521664
05692		9.425308	0.284619	-2.614313	0.108854	0.009536	0.023332	-0.593262	0.421387	0.526123	0.281722	-0.749374	-0.295335	-0.521392
05693		9.394552	0.279816	-2.682179	0.079207	0.014889	0.003679	-0.587891	0.428467	0.523682	0.282299	-0.749151	-0.295559	-0.521272
05694		9.337550	0.178048	-2.720163	0.034371	0.023851	-0.000380	-0.589844	0.425781	0.517334	0.282600	-0.748985	-0.295593	-0.521329
05695		9.343212	0.113146	-2.774955	-0.015934	0.029833	-0.006823	-0.585205	0.425049	0.520264	0.282573	-0.748894	-0.295437	-0.521563
05696		9.359308	0.114061	-2.795297	-0.085580	0.031623	-0.006914	-0.589355	0.428467	0.518066	0.282114	-0.748958	-0.294975	-0.521980
05697		9.412398	-0.093955	-2.790228	-0.151233	0.031909	-0.006562	-0.579346	0.429932	0.522705	0.281245	-0.749175	-0.294227	-0.522560
05698		9.413423	-0.491926	-2.832416	-0.148180	0.030018	-0.032637	-0.588135	0.427734	0.525879	0.280277	-0.749327	-0.293659	-0.523181
05699		9.472561	-0.660306	-2.811580	-0.095355	0.043353	-0.085130	-0.587891	0.429199	0.520264	0.279440	-0.749167	-0.293619	-0.523879
05700		9.490488	-0.589082	-2.801239	-0.064160	0.047333	-0.129015	-0.588623	0.422852	0.531494	0.278616	-0.748809	-0.293980	-0.524627
05701		9.477619	-0.511296	-2.859409	-0.063476	0.051282	-0.153671	-0.594971	0.429932	0.518799	0.277698	-0.748371	-0.294489	-0.525454
05702		9.369014	-0.554322	-2.878010	-0.065084	0.047829	-0.172951	-0.592529	0.430176	0.521973	0.276675	-0.747901	-0.295118	-0.526308
05703		9.332384	-0.541064	-2.927692	-0.050340	0.046221	-0.188998	-0.586670	0.434814	0.524902	0.275668	-0.747364	-0.295916	-0.527151
05704		9.370035	-0.607021	-3.012916	-0.064155	0.042070	-0.198568	-0.593994	0.421875	0.526123	0.274522	-0.746850	-0.296722	-0.528023
05705		9.342475	-0.839696	-3.073581	-0.081624	0.044154	-0.216393	-0.588623	0.416992	0.537598	0.273193	-0.746321	-0.297557	-0.528990
05706		9.327919	-0.880744	-3.005797	-0.100648	0.042464	-0.228460	-0.592773	0.425293	0.533936	0.271687	-0.745810	-0.298386	-0.530019
05707		9.318126	-0.755201	-2.964721	-0.123706	0.036840	-0.219668	-0.596680	0.422607	0.546143	0.270061	-0.745394	-0.299070	-0.531048
05708		9.241349	-0.771385	-2.954735	-0.138063	0.027626	-0.200981	-0.595459	0.416016	0.538086	0.268404	-0.745095	-0.299595	-0.532011
05709		9.215573	-0.815618	-2.914331	-0.114173	0.016975	-0.187012	-0.602539	0.410889	0.539795	0.266930	-0.744823	-0.300161	-0.532815
05710		9.225491	-0.825344	-2.890159	-0.103499	0.009977	-0.163372	-0.592529	0.416504	0.544434	0.265609	-0.744614	-0.300642	-0.533494
05711		9.319744	-0.950358	-2.980742	-0.094981	0.011337	-0.140613	-0.597656	0.418213	0.540771	0.264444	-0.744437	-0.301016	-0.534109
05712		9.326177	-1.111656	-2.968873	-0.087724	0.010538	-0.134364	-0.595459	0.416504	0.548584	0.263350	-0.744261	-0.301385	-0.534686
05713		9.307847	-1.074568	-3.033992	-0.095747	0.001080	-0.133974	-0.592773	0.422607	0.549561	0.262185	-0.744145	-0.301736	-0.535222
05714		9.353832	-1.062023	-3.009159	-0.134160	0.002220	-0.125853	-0.597900	0.418945	0.560059	0.260820	-0.744128	-0.301861	-0.535842
05715		9.319613	-1.106131	-2.979283	-0.160540	-0.000817	-0.114028	-0.586670	0.413330	0.561279	0.259336	-0.744209	-0.301801	-0.536483
05716		9.335159	-1.093731	-2.905279	-0.148873	0.000711	-0.095405	-0.596680	0.403320	0.562500	0.258011	-0.744304	-0.301673	-0.537062
05717		9.303810	-1.071744	-2.893692	-0.116725	-0.007598	-0.077934	-0.596680	0.410156	0.568359	0.256943	-0.744410	-0.301597	-0.537470
05718		9.292855	-1.024689	-2.853939	-0.092939	-0.013719	-0.056489	-0.597900	0.407715	0.574707	0.256103	-0.744546	-0.301507	-0.537733
05719		9.276015	-1.064433	-2.815192	-0.088364	-0.016036	-0.035642	-0.591797	0.411865	0.577393	0.255379	-0.744734	-0.301313	-0.537925
05720		9.266586	-0.992890	-2.877673	-0.095604	-0.016745	-0.013154	-0.595215	0.402344	0.558350	0.254710	-0.744997	-0.300947	-0.538083
05721		9.310588	-1.061755	-2.904287	-0.103101	-0.012594	-0.007086	-0.597168	0.405762	0.562744	0.254032	-0.745273	-0.300500	-0.538271
05722		9.357775	-1.007886	-2.880518	-0.093228	-0.009210	-0.000528	-0.594727	0.405518	0.576904	0.253453	-0.745528	-0.300049	-0.538442
05723		9.316941	-0.959000	-2.891557	-0.093934	-0.010000	-0.002092	-0.598633	0.406006	0.583740	0.252862	-0.745785	-0.299606	-0.538612
05724		9.386302	-0.980690	-2.852113	-0.078907	-0.005309	0.002145	-0.590088	0.405273	0.575439	0.252163	-0.746124	-0.298885	-0.538869
05725		9.359343	-0.954928	-2.887203	-0.062723	-0.001600	0.006103	-0.585449	0.406006	0.581055	0.251823	-0.746298	-0.298511	-0.538996
05726		9.403662	-1.028380	-2.911616	-0.046214	-0.002342	0.007073	-0.586426	0.400635	0.582520	0.251588	-0.746442	-0.298207	-0.539074
05727		9.410056	-1.017531	-2.943129	-0.020331	-0.006210	0.009510	-0.584717	0.405029	0.582031	0.251517	-0.746555	-0.298011	-0.539058
05728		9.414625	-0.936472	-2.943176	-0.006597	-0.011915	0.019609	-0.588867	0.403809	0.593750	0.251562	-0.746691	-0.297826	-0.538952
05729		9.324433	-1.007157	-2.945664	-0.005498	-0.010373	0.031920	-0.586914	0.403320	0.587402	0.251386	-0.747003	-0.297181	-0.538957
05730		9.304711	-1.185605	-3.041027	-0.008659	-0.020564	0.036492	-0.591553	0.406494	0.585205	0.251473	-0.747224	-0.296898	-0.538766
05731		9.331310	-1.328581	-3.007348	0.004944	-0.013776	0.035120	-0.585938	0.399658	0.581787	0.251655	-0.747383	-0.296670	-0.538586
05732		9.299283	-1.272090	-2.909738	0.008600	-0.018371	0.035900	-0.582764	0.406494	0.574463	0.251854	-0.747557	-0.296462	-0.538366
05733		9.316300	-1.445415	-2.966148	0.027136	-0.023183	0.042878	-0.586182	0.400391	0.568604	0.252187	-0.747731	-0.296303	-0.538056
05734		9.255239	-1.709508	-2.964079	0.067034	-0.024704	0.035191	-0.587646	0.407471	0.570557	0.252732	-0.747810	-0.296373	-0.537653
05735		9.306415	-1.681236	-2.968415	0.131118	-0.023677	0.027257	-0.588379	0.403564	0.578125	0.253643	-0.747729	-0.296776	-0.537114
05736		9.315184	-1.424894	-2.951478	0.148482	-0.020739	0.046572	-0.590820	0.402832	0.564453	0.254757	-0.747645	-0.297129	-0.536508
